timestamp_before, timestamp_after, accel_x, accel_y, accel_z, gyro_x, gyro_y, gyro_z
1490302245.473177, 1490302245.475674, -0.266052, +1.255188, +0.236389, +10.589600, +0.305176, -6.332397
1490302245.476028, 1490302245.478314, -0.266052, +1.255188, +0.236389, +187.042236, -361.099243, -360.671997
1490302245.478583, 1490302245.480867, -0.266052, +0.973938, +0.167175, +187.042236, -361.099243, -360.671997
1490302245.481134, 1490302245.483425, -0.214050, +0.962952, +0.167175, +187.042236, +361.557007, +345.230103
1490302245.483693, 1490302245.486018, -0.214050, +0.962952, +0.167175, -157.852173, +362.503052, +345.230103
1490302245.486286, 1490302245.488573, -0.214050, +0.962952, +0.167175, -157.852173, +362.503052, -6.027222
1490302245.488838, 1490302245.491127, -0.214050, +0.991516, +0.162048, +8.712769, -0.457764, -6.027222
1490302245.491384, 1490302245.493674, -0.222290, +0.991516, +0.162048, +8.712769, -0.457764, -6.027222
1490302245.493931, 1490302245.496353, -0.222290, +0.991516, +0.162048, +9.353638, -0.076294, -6.744385
1490302245.496614, 1490302245.498932, -0.222290, +0.991516, +0.162048, +9.353638, -0.076294, -6.744385
1490302245.499192, 1490302245.501473, -0.212402, +0.993713, +0.167175, +10.238647, +0.549316, -6.408691
1490302245.501735, 1490302245.504024, -0.212402, +0.993713, +0.167175, +10.238647, +0.549316, -6.408691
1490302245.504285, 1490302245.506687, -0.212402, +0.993713, +0.167175, +10.391235, +1.098633, -5.401611
1490302245.506949, 1490302245.509239, -0.212402, +0.993713, +0.167175, +10.391235, +1.098633, -5.401611
1490302245.509499, 1490302245.511789, -0.210022, +0.995361, +0.171936, +9.231567, +1.052856, -4.562378
1490302245.512046, 1490302245.514332, -0.210022, +0.995361, +0.171936, +9.231567, +1.052856, -4.562378
1490302245.514700, 1490302245.517113, -0.210022, +0.995361, +0.171936, +9.231567, +1.007080, -4.577637
1490302245.517379, 1490302245.519789, -0.210022, +0.995361, +0.173218, +8.575439, +1.007080, -4.577637
1490302245.520055, 1490302245.522463, -0.214783, +0.991333, +0.173218, +8.575439, +0.778198, -4.882812
1490302245.522730, 1490302245.525152, -0.214783, +0.991333, +0.173218, +8.468628, +0.778198, -4.882812
1490302245.525416, 1490302245.527819, -0.214783, +0.991333, +0.173218, +8.468628, +0.778198, -5.386353
1490302245.528083, 1490302245.530500, -0.210938, +0.992432, +0.172668, +8.468628, +0.381470, -5.386353
1490302245.530766, 1490302245.533176, -0.210938, +0.992432, +0.172668, +8.468628, +0.381470, -5.905151
1490302245.533442, 1490302245.535791, -0.210938, +0.992432, +0.172668, +8.544922, +0.366211, -5.905151
1490302245.536049, 1490302245.538342, -0.210938, +0.992432, +0.172668, +8.544922, +0.366211, -5.905151
1490302245.538601, 1490302245.540890, -0.208008, +0.993164, +0.168091, +8.819580, +0.381470, -6.286621
1490302245.541149, 1490302245.543433, -0.208008, +0.993164, +0.168091, +8.819580, +0.381470, -6.286621
1490302245.543693, 1490302245.546020, -0.208008, +0.993164, +0.168091, +9.323120, +0.198364, -6.103516
1490302245.546279, 1490302245.548563, -0.208008, +0.993164, +0.168091, +9.323120, +0.198364, -6.103516
1490302245.548821, 1490302245.551109, -0.212769, +0.990967, +0.168091, +9.490967, +0.335693, -6.393433
1490302245.551366, 1490302245.553657, -0.212769, +0.990967, +0.168091, +9.490967, +0.335693, -6.393433
1490302245.553914, 1490302245.556309, -0.212769, +0.990967, +0.168091, +10.208130, +0.442505, -6.423950
1490302245.556577, 1490302245.558995, -0.212769, +0.996826, +0.171204, +10.208130, +0.442505, -6.423950
1490302245.559262, 1490302245.561822, -0.208923, +0.996826, +0.171204, +10.345459, +0.625610, -5.920410
1490302245.562093, 1490302245.564520, -0.208923, +0.996826, +0.171204, +10.345459, +0.625610, -5.920410
1490302245.564791, 1490302245.567199, -0.208923, +0.996826, +0.171204, +9.750366, +0.930786, -5.294800
1490302245.567465, 1490302245.569873, -0.208557, +0.991150, +0.169556, +9.750366, +0.930786, -5.294800
1490302245.570138, 1490302245.572553, -0.208557, +0.991150, +0.169556, +9.750366, +0.793457, -4.852295
1490302245.572817, 1490302245.575242, -0.208557, +0.991150, +0.169556, +9.262085, +0.793457, -4.852295
1490302245.575655, 1490302245.578070, -0.208557, +0.991150, +0.172302, +9.262085, +0.564575, -4.760742
1490302245.578335, 1490302245.580749, -0.214966, +0.992981, +0.172302, +8.926392, +0.564575, -4.760742
1490302245.581015, 1490302245.583430, -0.214966, +0.992981, +0.172302, +8.926392, +0.381470, -4.974365
1490302245.583696, 1490302245.586124, -0.214966, +0.992981, +0.172302, +8.163452, +0.381470, -4.974365
1490302245.586390, 1490302245.588804, -0.212219, +0.991699, +0.167725, +8.163452, +0.381470, -5.462646
1490302245.589069, 1490302245.591483, -0.212219, +0.991699, +0.167725, +7.949829, +0.442505, -5.462646
1490302245.591748, 1490302245.594162, -0.212219, +0.991699, +0.167725, +7.949829, +0.442505, -6.561279
1490302245.594432, 1490302245.596725, -0.212219, +0.991699, +0.167725, +8.590698, +0.457764, -6.561279
1490302245.596982, 1490302245.599269, -0.209106, +0.992981, +0.165894, +8.590698, +0.457764, -6.561279
1490302245.599528, 1490302245.601815, -0.209106, +0.992981, +0.165894, +9.643555, +0.854492, -7.095337
1490302245.602071, 1490302245.604357, -0.209106, +0.992981, +0.165894, +9.643555, +0.854492, -7.095337
1490302245.604803, 1490302245.607098, -0.209106, +0.992981, +0.172668, +9.506226, +1.190186, -5.889893
1490302245.607357, 1490302245.609646, -0.217163, +0.990967, +0.172668, +9.506226, +1.190186, -5.889893
1490302245.609903, 1490302245.612196, -0.217163, +0.990967, +0.172668, +8.728027, +0.900269, -5.004883
1490302245.612454, 1490302245.614751, -0.217163, +0.990967, +0.172668, +8.728027, +0.900269, -5.004883
1490302245.615008, 1490302245.617295, -0.217163, +0.995178, +0.166443, +8.468628, +0.213623, -6.256104
1490302245.617552, 1490302245.619838, -0.207275, +0.995178, +0.166443, +8.468628, +0.213623, -6.256104
1490302245.620095, 1490302245.622383, -0.207275, +0.995178, +0.166443, +8.468628, +0.457764, -7.598877
1490302245.622642, 1490302245.625140, -0.207275, +0.995178, +0.166443, +9.201050, +0.457764, -7.598877
1490302245.625405, 1490302245.627812, -0.203613, +0.992615, +0.171204, +9.201050, +0.549316, -7.553101
1490302245.628079, 1490302245.630476, -0.203613, +0.992615, +0.171204, +9.674072, +0.549316, -7.553101
1490302245.630741, 1490302245.633139, -0.203613, +0.992615, +0.171204, +9.674072, +0.549316, -6.149292
1490302245.633405, 1490302245.635794, -0.203613, +0.992615, +0.171204, +9.628296, +0.747681, -6.149292
1490302245.636051, 1490302245.638339, -0.217163, +0.986206, +0.179993, +9.628296, +0.747681, -5.569458
1490302245.638597, 1490302245.640886, -0.217163, +0.986206, +0.179993, +8.560181, +0.289917, -5.569458
1490302245.641144, 1490302245.643432, -0.217163, +0.986206, +0.179993, +8.560181, +0.289917, -5.569458
1490302245.643689, 1490302245.646087, -0.217163, +0.986206, +0.172485, +8.132935, +0.152588, -5.096436
1490302245.646351, 1490302245.648763, -0.215515, +0.990967, +0.172485, +8.132935, +0.152588, -5.096436
1490302245.649027, 1490302245.651435, -0.215515, +0.990967, +0.172485, +8.270264, +0.122070, -5.584717
1490302245.651701, 1490302245.654259, -0.215515, +0.990967, +0.172485, +8.270264, +0.122070, -5.584717
1490302245.654599, 1490302245.657003, -0.221375, +0.997559, +0.171387, +8.422852, -0.015259, -6.439209
1490302245.657269, 1490302245.659642, -0.221375, +0.997559, +0.171387, +8.422852, -0.015259, -6.439209
1490302245.659993, 1490302245.662373, -0.221375, +0.997559, +0.171387, +9.597778, +0.320435, -6.652832
1490302245.662636, 1490302245.665827, -0.221375, +0.997559, +0.171387, +9.597778, +0.320435, -6.652832
1490302245.666095, 1490302245.668511, -0.218262, +1.004150, +0.169006, +9.857178, +0.686646, -6.423950
1490302245.668777, 1490302245.671190, -0.218262, +1.004150, +0.169006, +9.857178, +0.686646, -6.423950
1490302245.671454, 1490302245.673866, -0.218262, +1.004150, +0.169006, +9.674072, +1.403809, -5.249023
1490302245.674129, 1490302245.676447, -0.221558, +0.995728, +0.176880, +9.674072, +1.403809, -5.249023
1490302245.676706, 1490302245.678993, -0.221558, +0.995728, +0.176880, +8.697510, +1.556396, -4.547119
1490302245.679252, 1490302245.681532, -0.221558, +0.995728, +0.176880, +8.697510, +1.556396, -4.547119
1490302245.681920, 1490302245.684205, -0.221558, +0.995728, +0.176880, +7.873535, +1.358032, -4.226685
1490302245.684459, 1490302245.686751, -0.214600, +0.992249, +0.173035, +7.873535, +1.358032, -4.226685
1490302245.687007, 1490302245.689296, -0.214600, +0.992249, +0.173035, +7.537842, +0.869751, -4.180908
1490302245.689554, 1490302245.691846, -0.214600, +0.992249, +0.173035, +7.537842, +0.869751, -4.180908
1490302245.692105, 1490302245.694438, -0.214600, +0.992249, +0.173035, +11.444092, +0.411987, -4.257202
1490302245.694700, 1490302245.696989, -0.211670, +0.983826, +0.169556, +8.178711, +0.411987, -4.257202
1490302245.697246, 1490302245.699627, -0.211670, +0.983826, +0.169556, +8.178711, +0.411987, -4.699707
1490302245.699885, 1490302245.702170, -0.211670, +0.983826, +0.169556, +9.185791, +0.213623, -4.699707
1490302245.702428, 1490302245.704719, -0.211670, +0.982910, +0.171753, +9.185791, +0.213623, -4.699707
1490302245.704977, 1490302245.707275, -0.210571, +0.982910, +0.171753, +9.704590, +0.320435, -4.516602
1490302245.707534, 1490302245.709820, -0.210571, +0.982910, +0.171753, +9.704590, +0.320435, -4.516602
1490302245.710079, 1490302245.712369, -0.210571, +0.982910, +0.171753, +10.330200, +0.885010, -4.272461
1490302245.712632, 1490302245.715185, -0.220093, +0.988403, +0.177979, +10.330200, +0.885010, -4.272461
1490302245.715451, 1490302245.717735, -0.220093, +0.988403, +0.177979, +10.406494, +1.037598, -3.372192
1490302245.717996, 1490302245.720290, -0.220093, +0.988403, +0.177979, +10.406494, +1.037598, -3.372192
1490302245.720550, 1490302245.722835, -0.220093, +0.988403, +0.177979, +9.933472, +1.190186, -2.563477
1490302245.723093, 1490302245.725526, -0.221008, +0.996643, +0.180359, +9.933472, +1.190186, -2.563477
1490302245.725783, 1490302245.728078, -0.221008, +0.996643, +0.180359, +8.789062, +0.656128, -2.365112
1490302245.728335, 1490302245.730618, -0.221008, +0.996643, +0.180359, +8.789062, +0.656128, -2.365112
1490302245.730876, 1490302245.733166, -0.221008, +0.996643, +0.180359, +8.789062, +0.228882, -2.700806
1490302245.733424, 1490302245.735852, -0.218811, +1.001038, +0.174133, +8.560181, +0.228882, -2.700806
1490302245.736118, 1490302245.738529, -0.218811, +1.001038, +0.174133, +8.560181, +0.228882, -3.036499
1490302245.738794, 1490302245.741208, -0.218811, +1.001038, +0.174133, +9.399414, +0.244141, -3.036499
1490302245.741473, 1490302245.743880, -0.218811, +0.993896, +0.166809, +9.399414, +0.244141, -2.883911
1490302245.744144, 1490302245.746569, -0.214966, +0.993896, +0.166809, +9.933472, +0.167847, -2.883911
1490302245.746834, 1490302245.749250, -0.214966, +0.993896, +0.166809, +9.933472, +0.167847, -2.029419
1490302245.749515, 1490302245.751926, -0.214966, +0.993896, +0.166809, +10.528564, +0.244141, -2.029419
1490302245.752193, 1490302245.754639, -0.228516, +0.985657, +0.175598, +10.528564, +0.244141, -2.029419
1490302245.754901, 1490302245.757186, -0.228516, +0.985657, +0.175598, +10.498047, +0.625610, -1.907349
1490302245.757446, 1490302245.759735, -0.228516, +0.985657, +0.175598, +10.498047, +0.625610, -1.907349
1490302245.759995, 1490302245.762287, -0.228516, +0.985657, +0.175598, +10.070801, +1.144409, -1.419067
1490302245.762547, 1490302245.764896, -0.235474, +0.986023, +0.182190, +10.070801, +1.144409, -1.419067
1490302245.765166, 1490302245.767578, -0.235474, +0.986023, +0.182190, +9.704590, +1.403809, -0.610352
1490302245.767843, 1490302245.770256, -0.235474, +0.986023, +0.182190, +9.704590, +1.403809, -0.610352
1490302245.770523, 1490302245.772937, -0.235474, +0.996460, +0.169556, +9.063721, +1.663208, -0.366211
1490302245.773202, 1490302245.775599, -0.233459, +0.996460, +0.169556, +9.063721, +1.663208, -0.366211
1490302245.775857, 1490302245.778141, -0.233459, +0.996460, +0.169556, +9.231567, +2.899170, -0.610352
1490302245.778400, 1490302245.780763, -0.233459, +0.996460, +0.169556, +9.231567, +2.899170, -0.610352
1490302245.781023, 1490302245.783318, -0.201233, +1.005066, +0.170837, +8.834839, +3.463745, -0.976562
1490302245.783577, 1490302245.785960, -0.201233, +1.005066, +0.170837, +8.834839, +3.463745, -0.976562
1490302245.786344, 1490302245.788756, -0.201233, +1.005066, +0.170837, +8.834839, +3.189087, -1.525879
1490302245.789019, 1490302245.791434, -0.201233, +1.005066, +0.170837, +7.827759, +3.189087, -1.525879
1490302245.791698, 1490302245.794108, -0.187683, +0.998840, +0.171387, +7.827759, +2.410889, -2.792358
1490302245.794371, 1490302245.796821, -0.187683, +0.998840, +0.171387, +7.446289, +2.410889, -2.792358
1490302245.797085, 1490302245.799497, -0.187683, +0.998840, +0.171387, +7.446289, +2.410889, -4.074097
1490302245.799759, 1490302245.802169, -0.187683, +0.990967, +0.171753, +7.614136, +1.663208, -4.074097
1490302245.802433, 1490302245.804853, -0.186951, +0.990967, +0.171753, +7.614136, +1.663208, -4.562378
1490302245.805117, 1490302245.807528, -0.186951, +0.990967, +0.171753, +8.560181, +1.480103, -4.562378
1490302245.807792, 1490302245.810204, -0.186951, +0.990967, +0.171753, +8.560181, +1.480103, -4.364014
1490302245.810471, 1490302245.812887, -0.185852, +0.988403, +0.177795, +8.956909, +1.724243, -4.364014
1490302245.813151, 1490302245.815505, -0.185852, +0.988403, +0.177795, +8.956909, +1.724243, -0.457764
1490302245.815764, 1490302245.818053, -0.185852, +0.988403, +0.177795, +8.621216, +1.373291, -3.631592
1490302245.818310, 1490302245.820603, -0.185852, +0.988403, +0.177795, +8.621216, +1.373291, -3.631592
1490302245.820860, 1490302245.823150, -0.194275, +0.981445, +0.179077, +7.919312, +0.869751, -3.234863
1490302245.823407, 1490302245.825741, -0.194275, +0.981445, +0.179077, +7.919312, +0.869751, -3.234863
1490302245.825998, 1490302245.828288, -0.194275, +0.981445, +0.179077, +7.232666, +0.946045, -3.524780
1490302245.828546, 1490302245.830832, -0.194275, +0.981445, +0.168640, +7.232666, +0.946045, -3.524780
1490302245.831091, 1490302245.833378, -0.199585, +0.977051, +0.168640, +7.385254, +0.595093, -3.585815
1490302245.833636, 1490302245.836156, -0.199585, +0.977051, +0.168640, +7.385254, +0.595093, -3.585815
1490302245.836420, 1490302245.838818, -0.199585, +0.977051, +0.168640, +6.958008, +0.610352, -4.043579
1490302245.839080, 1490302245.841478, -0.203613, +0.979431, +0.165161, +6.958008, +0.610352, -4.043579
1490302245.841740, 1490302245.844139, -0.203613, +0.979431, +0.165161, +6.958008, +0.869751, -5.172729
1490302245.844442, 1490302245.846861, -0.203613, +0.979431, +0.165161, +6.942749, +0.869751, -5.172729
1490302245.847124, 1490302245.849512, -0.203613, +0.979431, +0.165161, +6.942749, +1.632690, -5.737305
1490302245.849775, 1490302245.852173, -0.203796, +0.986572, +0.163147, +7.812500, +1.632690, -5.737305
1490302245.852437, 1490302245.854839, -0.203796, +0.986572, +0.163147, +7.812500, +1.632690, -5.554199
1490302245.855100, 1490302245.857471, -0.203796, +0.986572, +0.163147, +8.331299, +1.953125, -5.554199
1490302245.857733, 1490302245.860105, -0.203796, +0.986572, +0.170837, +8.331299, +1.953125, -4.821777
1490302245.860366, 1490302245.862739, -0.205627, +0.988586, +0.170837, +7.888794, +2.563477, -4.821777
1490302245.863000, 1490302245.865499, -0.205627, +0.988586, +0.170837, +7.888794, +2.563477, -4.821777
1490302245.865761, 1490302245.868174, -0.205627, +0.988586, +0.170837, +7.278442, +3.295898, -4.013062
1490302245.868438, 1490302245.870850, -0.202148, +0.986389, +0.171204, +7.278442, +3.295898, -4.013062
1490302245.871114, 1490302245.873528, -0.202148, +0.986389, +0.171204, +7.247925, +3.250122, -3.845215
1490302245.873791, 1490302245.876173, -0.202148, +0.986389, +0.171204, +7.247925, +3.250122, -3.845215
1490302245.876429, 1490302245.878714, -0.202148, +0.986389, +0.171204, +6.195068, +3.082275, -4.028320
1490302245.878970, 1490302245.881256, -0.195557, +0.986572, +0.180725, +6.195068, +3.082275, -4.028320
1490302245.881512, 1490302245.883799, -0.195557, +0.986572, +0.180725, +6.164551, +2.761841, -3.723145
1490302245.884055, 1490302245.886484, -0.195557, +0.986572, +0.180725, +6.164551, +2.761841, -3.723145
1490302245.886748, 1490302245.889162, -0.195557, +0.986572, +0.169189, +6.149292, +2.471924, -3.631592
1490302245.889535, 1490302245.891947, -0.193726, +0.985291, +0.169189, +6.149292, +2.471924, -3.631592
1490302245.892210, 1490302245.894630, -0.193726, +0.985291, +0.169189, +6.103516, +1.953125, -4.013062
1490302245.894895, 1490302245.897310, -0.193726, +0.985291, +0.169189, +6.103516, +1.953125, -4.013062
1490302245.897575, 1490302245.899983, -0.195007, +0.988220, +0.177246, +6.011963, +1.556396, -4.287720
1490302245.900246, 1490302245.902659, -0.195007, +0.988220, +0.177246, +6.011963, +1.556396, -4.287720
1490302245.902924, 1490302245.905353, -0.195007, +0.988220, +0.177246, +6.713867, +1.724243, -4.989624
1490302245.905618, 1490302245.908029, -0.195007, +0.988220, +0.177246, +6.713867, +1.724243, -4.989624
1490302245.908293, 1490302245.910701, -0.205078, +0.984741, +0.167542, +6.713867, +1.464844, -5.111694
1490302245.910965, 1490302245.913377, -0.205078, +0.984741, +0.167542, +7.247925, +1.464844, -5.111694
1490302245.913641, 1490302245.916063, -0.205078, +0.984741, +0.167542, +7.247925, +1.968384, -4.425049
1490302245.916327, 1490302245.918738, -0.205078, +0.986389, +0.177429, +7.446289, +1.968384, -4.425049
1490302245.919001, 1490302245.921416, -0.220825, +0.986389, +0.177429, +7.446289, +1.968384, -3.601074
1490302245.921680, 1490302245.924087, -0.220825, +0.986389, +0.177429, +7.568359, +2.532959, -3.601074
1490302245.924350, 1490302245.926644, -0.220825, +0.986389, +0.177429, +7.568359, +2.532959, -2.410889
1490302245.926900, 1490302245.929191, -0.243713, +0.986572, +0.200134, +7.415771, +2.975464, -2.410889
1490302245.929447, 1490302245.931733, -0.243713, +0.986572, +0.200134, +7.415771, +2.975464, -2.410889
1490302245.931990, 1490302245.934277, -0.243713, +0.986572, +0.200134, +6.271362, +3.723145, -1.052856
1490302245.934541, 1490302245.936943, -0.243713, +0.986572, +0.200134, +6.271362, +3.723145, -1.052856
1490302245.937207, 1490302245.939609, -0.260559, +0.992615, +0.191711, +4.867554, +4.302979, -1.235962
1490302245.939872, 1490302245.942271, -0.260559, +0.992615, +0.191711, +4.867554, +4.302979, -1.235962
1490302245.942534, 1490302245.944941, -0.260559, +0.992615, +0.191711, +4.028320, +5.294800, -2.136230
1490302245.945205, 1490302245.947604, -0.260559, +0.992615, +0.156006, +4.028320, +5.294800, -2.136230
1490302245.947867, 1490302245.950267, -0.209106, +1.013855, +0.156006, +4.943848, +6.042480, -2.548218
1490302245.950531, 1490302245.952938, -0.209106, +1.013855, +0.156006, +4.943848, +6.042480, -2.548218
1490302245.953201, 1490302245.955632, -0.209106, +1.013855, +0.156006, +5.142212, +6.103516, -2.792358
1490302245.955894, 1490302245.958269, -0.183105, +1.005066, +0.163696, +5.142212, +6.103516, -2.792358
1490302245.958530, 1490302245.960912, -0.183105, +1.005066, +0.163696, +5.661011, +6.393433, -2.670288
1490302245.961172, 1490302245.963547, -0.183105, +1.005066, +0.163696, +5.661011, +6.393433, -2.670288
1490302245.963808, 1490302245.966195, -0.183105, +1.005066, +0.163696, +5.523682, +6.759644, -2.029419
1490302245.966453, 1490302245.968740, -0.193542, +0.985474, +0.183472, +5.523682, +6.759644, -2.029419
1490302245.968998, 1490302245.971285, -0.193542, +0.985474, +0.183472, +5.523682, +6.759644, -1.235962
1490302245.971542, 1490302245.973829, -0.193542, +0.985474, +0.183472, +5.493164, +6.729126, -1.235962
1490302245.974085, 1490302245.976493, -0.193542, +0.985474, +0.183472, +5.493164, +6.729126, -1.083374
1490302245.976757, 1490302245.979167, -0.198120, +0.980530, +0.177612, +4.516602, +6.072998, -1.083374
1490302245.979431, 1490302245.981845, -0.198120, +0.980530, +0.177612, +4.516602, +6.072998, -1.083374
1490302245.982109, 1490302245.984529, -0.198120, +0.980530, +0.177612, +3.768921, +5.477905, -1.266479
1490302245.984793, 1490302245.987197, -0.194458, +0.988403, +0.169373, +3.768921, +5.477905, -1.266479
1490302245.987463, 1490302245.989877, -0.194458, +0.988403, +0.169373, +3.524780, +4.882812, -1.754761
1490302245.990140, 1490302245.992552, -0.194458, +0.988403, +0.169373, +3.524780, +4.882812, -1.754761
1490302245.992817, 1490302245.995239, -0.194458, +0.988403, +0.169373, +3.799438, +5.142212, -2.182007
1490302245.995611, 1490302245.998020, -0.192444, +0.982910, +0.168640, +3.799438, +5.142212, -2.182007
1490302245.998284, 1490302246.000697, -0.192444, +0.982910, +0.168640, +3.662109, +5.844116, -2.700806
1490302246.000962, 1490302246.003376, -0.192444, +0.982910, +0.168640, +3.662109, +5.844116, -2.700806
1490302246.003642, 1490302246.006073, -0.192444, +0.982910, +0.182922, +4.150391, +6.591797, -2.716064
1490302246.006338, 1490302246.008752, -0.200684, +0.979980, +0.182922, +4.150391, +6.591797, -2.716064
1490302246.009016, 1490302246.011430, -0.200684, +0.979980, +0.182922, +4.547119, +7.766724, -1.876831
1490302246.011694, 1490302246.014113, -0.200684, +0.979980, +0.182922, +4.547119, +7.766724, -1.876831
1490302246.014377, 1490302246.016722, -0.203064, +0.989868, +0.190063, +4.714966, +8.209229, -0.946045
1490302246.016982, 1490302246.019269, -0.203064, +0.989868, +0.190063, +4.714966, +8.209229, -0.946045
1490302246.019528, 1490302246.021814, -0.203064, +0.989868, +0.190063, +4.257202, +8.575439, -0.579834
1490302246.022071, 1490302246.024363, -0.203064, +0.989868, +0.190063, +4.257202, +8.575439, -0.579834
1490302246.024706, 1490302246.027114, -0.199951, +0.993530, +0.191711, +0.350952, +8.041382, +0.228882
1490302246.027381, 1490302246.029796, -0.199951, +0.993530, +0.191711, +3.692627, +8.041382, +0.228882
1490302246.030060, 1490302246.032475, -0.199951, +0.993530, +0.191711, +3.692627, +6.759644, +0.366211
1490302246.032739, 1490302246.035156, -0.199951, +0.993530, +0.188416, +3.845215, +6.759644, +0.366211
1490302246.035421, 1490302246.037829, -0.213684, +0.994629, +0.188416, +3.845215, +6.759644, -0.289917
1490302246.038094, 1490302246.040505, -0.213684, +0.994629, +0.188416, +4.364014, +6.378174, -0.289917
1490302246.040769, 1490302246.043178, -0.213684, +0.994629, +0.188416, +4.364014, +6.378174, -0.366211
1490302246.043442, 1490302246.045863, -0.232544, +0.981445, +0.185669, +5.111694, +7.583618, -0.366211
1490302246.046126, 1490302246.048538, -0.232544, +0.981445, +0.185669, +5.111694, +7.583618, +1.144409
1490302246.048800, 1490302246.051215, -0.232544, +0.981445, +0.185669, +4.577637, +8.743286, +1.144409
1490302246.051480, 1490302246.053890, -0.232544, +0.981445, +0.185669, +4.577637, +8.743286, +1.144409
1490302246.054154, 1490302246.056454, -0.220093, +0.984924, +0.179626, +3.051758, +9.506226, +1.403809
1490302246.056711, 1490302246.058998, -0.220093, +0.984924, +0.179626, +3.051758, +9.506226, +1.403809
1490302246.059255, 1490302246.061544, -0.220093, +0.984924, +0.179626, +3.677368, +10.437012, +0.854492
1490302246.061805, 1490302246.064095, -0.220093, +0.984924, +0.169006, +3.677368, +10.437012, +0.854492
1490302246.064357, 1490302246.066771, -0.200684, +0.987122, +0.169006, +3.784180, +12.008667, +1.388550
1490302246.067041, 1490302246.069449, -0.200684, +0.987122, +0.169006, +3.784180, +12.008667, +1.388550
1490302246.069717, 1490302246.072134, -0.200684, +0.987122, +0.169006, +2.670288, +12.756348, +2.639771
1490302246.072402, 1490302246.074858, -0.198669, +0.988953, +0.183289, +2.670288, +12.756348, +2.639771
1490302246.075126, 1490302246.077537, -0.198669, +0.988953, +0.183289, +2.319336, +13.519287, +1.205444
1490302246.077804, 1490302246.080217, -0.198669, +0.988953, +0.183289, +2.319336, +13.519287, +1.205444
1490302246.080485, 1490302246.082898, -0.198669, +0.988953, +0.183289, +2.502441, +14.068604, +1.190186
1490302246.083167, 1490302246.085627, -0.193909, +0.983276, +0.167908, +2.502441, +14.068604, +1.190186
1490302246.085895, 1490302246.088308, -0.193909, +0.983276, +0.167908, +1.373291, +14.236450, +2.243042
1490302246.088576, 1490302246.090982, -0.193909, +0.983276, +0.167908, +1.373291, +14.236450, +2.243042
1490302246.091251, 1490302246.093665, -0.193909, +0.983276, +0.169189, +0.732422, +13.427734, +0.839233
1490302246.093932, 1490302246.096357, -0.182922, +0.976318, +0.169189, +0.732422, +13.427734, +0.839233
1490302246.096625, 1490302246.099031, -0.182922, +0.976318, +0.169189, +0.732422, +12.893677, +0.625610
1490302246.099298, 1490302246.101716, -0.182922, +0.976318, +0.169189, +1.159668, +12.893677, +0.625610
1490302246.102091, 1490302246.104517, -0.206177, +0.982910, +0.186401, +1.159668, +12.756348, +1.922607
1490302246.104779, 1490302246.107068, -0.206177, +0.982910, +0.186401, +0.518799, +12.756348, +1.922607
1490302246.107328, 1490302246.109617, -0.206177, +0.982910, +0.186401, +0.518799, +12.756348, +1.678467
1490302246.109878, 1490302246.112165, -0.206177, +0.982910, +0.186401, -0.778198, +12.832642, +1.678467
1490302246.112424, 1490302246.114717, -0.220642, +0.997925, +0.185303, -0.778198, +12.832642, +1.678467
1490302246.114977, 1490302246.117259, -0.220642, +0.997925, +0.185303, -1.037598, +13.412476, +0.289917
1490302246.117519, 1490302246.119805, -0.220642, +0.997925, +0.185303, -1.037598, +13.412476, +0.289917
1490302246.120067, 1490302246.122357, -0.220642, +0.997925, +0.205261, -0.015259, +15.289307, +0.396729
1490302246.122618, 1490302246.124927, -0.180908, +0.991699, +0.205261, -0.015259, +15.289307, +0.396729
1490302246.125199, 1490302246.127618, -0.180908, +0.991699, +0.205261, -0.823975, +16.220093, +1.327515
1490302246.127887, 1490302246.130300, -0.180908, +0.991699, +0.205261, -0.823975, +16.220093, +1.327515
1490302246.130567, 1490302246.132976, -0.180908, +0.973938, +0.196472, -1.571655, +15.579224, +0.091553
1490302246.133246, 1490302246.135673, -0.175598, +0.973938, +0.196472, -1.571655, +15.579224, +0.091553
1490302246.135942, 1490302246.138360, -0.175598, +0.973938, +0.196472, -0.595093, +15.045166, -1.358032
1490302246.138628, 1490302246.141044, -0.175598, +0.973938, +0.196472, -0.595093, +15.045166, -1.358032
1490302246.141315, 1490302246.143724, -0.169739, +0.966980, +0.203430, -0.549316, +14.770508, -1.571655
1490302246.143991, 1490302246.146448, -0.169739, +0.966980, +0.203430, -0.549316, +14.770508, -1.571655
1490302246.146716, 1490302246.149128, -0.169739, +0.966980, +0.203430, -1.922607, +13.671875, -1.739502
1490302246.149396, 1490302246.151811, -0.169739, +0.966980, +0.219727, -1.922607, +13.671875, -1.739502
1490302246.152079, 1490302246.154500, -0.149414, +0.979065, +0.219727, -1.922607, +11.581421, -3.677368
1490302246.154762, 1490302246.157053, -0.149414, +0.979065, +0.219727, -2.243042, +11.581421, -3.677368
1490302246.157315, 1490302246.159599, -0.149414, +0.979065, +0.219727, -2.243042, +11.581421, -6.011963
1490302246.159861, 1490302246.162148, -0.134399, +1.006714, +0.232361, -0.717163, +9.521484, -6.011963
1490302246.162406, 1490302246.164724, -0.134399, +1.006714, +0.232361, -0.717163, +9.521484, -6.011963
1490302246.164990, 1490302246.167405, -0.134399, +1.006714, +0.232361, +0.808716, +8.331299, -6.469727
1490302246.167669, 1490302246.170082, -0.134399, +1.006714, +0.232361, +0.808716, +8.331299, -6.469727
1490302246.170347, 1490302246.172761, -0.164612, +1.030701, +0.249390, +1.388550, +7.369995, -6.088257
1490302246.173023, 1490302246.175447, -0.164612, +1.030701, +0.249390, +1.388550, +7.369995, -6.088257
1490302246.175710, 1490302246.178124, -0.164612, +1.030701, +0.249390, +0.885010, +7.003784, -6.591797
1490302246.178390, 1490302246.180798, -0.164612, +1.030701, +0.263489, +0.885010, +7.003784, -6.591797
1490302246.181063, 1490302246.183473, -0.210388, +1.033264, +0.263489, +2.059937, +6.149292, -8.102417
1490302246.183736, 1490302246.186152, -0.210388, +1.033264, +0.263489, +2.059937, +6.149292, -8.102417
1490302246.186416, 1490302246.188828, -0.210388, +1.033264, +0.263489, +4.135132, +6.210327, -8.331299
1490302246.189092, 1490302246.191501, -0.199951, +0.981812, +0.267883, +4.135132, +6.210327, -8.331299
1490302246.191766, 1490302246.194174, -0.199951, +0.981812, +0.267883, +4.806519, +6.759644, -6.866455
1490302246.194446, 1490302246.196859, -0.199951, +0.981812, +0.267883, +4.806519, +6.759644, -6.866455
1490302246.197123, 1490302246.199535, -0.199951, +0.981812, +0.267883, +3.631592, +6.820679, -5.401611
1490302246.199800, 1490302246.202210, -0.199219, +0.966614, +0.234924, +3.631592, +6.820679, -5.401611
1490302246.202473, 1490302246.204878, -0.199219, +0.966614, +0.234924, +3.311157, +7.019043, -5.249023
1490302246.205239, 1490302246.207530, -0.199219, +0.966614, +0.234924, +3.311157, +7.019043, -5.249023
1490302246.207788, 1490302246.210075, -0.199219, +0.966614, +0.205078, +4.684448, +7.598877, -5.493164
1490302246.210332, 1490302246.212726, -0.198853, +0.957092, +0.205078, +4.684448, +7.598877, -5.493164
1490302246.212983, 1490302246.215307, -0.198853, +0.957092, +0.205078, +4.684448, +8.102417, -4.272461
1490302246.215571, 1490302246.217948, -0.198853, +0.957092, +0.205078, +4.776001, +8.102417, -4.272461
1490302246.218211, 1490302246.220590, -0.198853, +0.970276, +0.186951, +4.776001, +8.102417, -3.128052
1490302246.220852, 1490302246.223297, -0.210938, +0.970276, +0.186951, +2.319336, +8.422852, -3.128052
1490302246.223563, 1490302246.225959, -0.210938, +0.970276, +0.186951, +2.319336, +8.422852, -3.189087
1490302246.226222, 1490302246.228595, -0.210938, +0.970276, +0.186951, +1.800537, +8.682251, -3.189087
1490302246.228858, 1490302246.231231, -0.196655, +0.996277, +0.184204, +1.800537, +8.682251, -3.189087
1490302246.231492, 1490302246.233958, -0.196655, +0.996277, +0.184204, +2.639771, +8.850098, -2.624512
1490302246.234223, 1490302246.236604, -0.196655, +0.996277, +0.184204, +2.639771, +8.850098, -2.624512
1490302246.236867, 1490302246.239238, -0.196655, +0.996277, +0.209839, +2.014160, +8.422852, -1.266479
1490302246.239500, 1490302246.241875, -0.181458, +0.984375, +0.209839, +2.014160, +8.422852, -1.266479
1490302246.242138, 1490302246.244552, -0.181458, +0.984375, +0.209839, +0.900269, +6.530762, -1.312256
1490302246.244817, 1490302246.247226, -0.181458, +0.984375, +0.209839, +0.900269, +6.530762, -1.312256
1490302246.247490, 1490302246.249900, -0.195190, +0.975037, +0.233826, +0.305176, +4.806519, -2.136230
1490302246.250166, 1490302246.252579, -0.195190, +0.975037, +0.233826, +0.305176, +4.806519, -2.136230
1490302246.252842, 1490302246.255230, -0.195190, +0.975037, +0.233826, +0.869751, +4.714966, -3.463745
1490302246.255488, 1490302246.257773, -0.195190, +0.975037, +0.233826, +0.869751, +4.714966, -3.463745
1490302246.258030, 1490302246.260309, -0.176514, +0.973572, +0.240417, +1.983643, +5.050659, -3.250122
1490302246.260566, 1490302246.262853, -0.176514, +0.973572, +0.240417, +1.983643, +5.050659, -3.250122
1490302246.263108, 1490302246.265508, -0.176514, +0.973572, +0.240417, +1.983643, +4.653931, -2.227783
1490302246.265773, 1490302246.268186, -0.176514, +0.973572, +0.240417, +1.525879, +4.653931, -2.227783
1490302246.268449, 1490302246.270860, -0.178894, +0.977051, +0.246277, +1.525879, +3.463745, -3.204346
1490302246.271124, 1490302246.273537, -0.178894, +0.977051, +0.246277, +0.762939, +3.463745, -3.204346
1490302246.273801, 1490302246.276464, -0.178894, +0.977051, +0.246277, +0.762939, +2.334595, -5.554199
1490302246.276726, 1490302246.279008, -0.189148, +0.979797, +0.247192, +1.708984, +2.334595, -5.554199
1490302246.279264, 1490302246.281538, -0.189148, +0.979797, +0.247192, +1.708984, +2.334595, -5.783081
1490302246.281795, 1490302246.284083, -0.189148, +0.979797, +0.247192, +2.731323, +1.449585, -5.783081
1490302246.284341, 1490302246.286623, -0.189148, +0.979797, +0.247192, +2.731323, +1.449585, -5.783081
1490302246.286880, 1490302246.289163, -0.148499, +0.985474, +0.233093, +2.059937, +1.205444, -5.676270
1490302246.289420, 1490302246.291715, -0.148499, +0.985474, +0.233093, +2.059937, +1.205444, -5.676270
1490302246.291972, 1490302246.294257, -0.148499, +0.985474, +0.233093, +1.556396, +0.015259, -7.217407
1490302246.294514, 1490302246.296801, -0.148499, +0.985474, +0.233093, +1.556396, +0.015259, -7.217407
1490302246.297060, 1490302246.299342, -0.146851, +0.986206, +0.217712, +2.227783, -0.091553, -8.972168
1490302246.299602, 1490302246.301884, -0.146851, +0.986206, +0.217712, +2.227783, -0.091553, -8.972168
1490302246.302142, 1490302246.304472, -0.146851, +0.986206, +0.217712, +2.319336, +0.457764, -8.987427
1490302246.304730, 1490302246.307018, -0.146851, +0.986206, +0.217712, +2.319336, +0.457764, -8.987427
1490302246.307277, 1490302246.309556, -0.177795, +1.002869, +0.222656, +2.319336, +0.534058, -9.201050
1490302246.309939, 1490302246.312227, -0.177795, +1.002869, +0.222656, +1.556396, +0.534058, -9.201050
1490302246.312483, 1490302246.314850, -0.177795, +1.002869, +0.222656, +1.556396, +0.534058, -10.848999
1490302246.315118, 1490302246.317538, -0.177795, +1.007996, +0.232910, +1.281738, +0.198364, -10.848999
1490302246.317806, 1490302246.320222, -0.164978, +1.007996, +0.232910, +1.281738, +0.198364, -11.795044
1490302246.320491, 1490302246.322903, -0.164978, +1.007996, +0.232910, +1.892090, -0.732422, -11.795044
1490302246.323170, 1490302246.325632, -0.164978, +1.007996, +0.232910, +1.892090, -0.732422, -11.947632
1490302246.325900, 1490302246.328308, -0.167175, +0.998108, +0.228149, +2.990723, -2.929688, -11.947632
1490302246.328576, 1490302246.330990, -0.167175, +0.998108, +0.228149, +2.990723, -2.929688, -11.947632
1490302246.331259, 1490302246.333675, -0.167175, +0.998108, +0.228149, +3.265381, -5.249023, -11.993408
1490302246.333943, 1490302246.336362, -0.167175, +0.998108, +0.275024, +3.265381, -5.249023, -11.993408
1490302246.336631, 1490302246.339049, -0.167358, +1.019348, +0.236023, +3.845215, -8.956909, -13.137817
1490302246.339317, 1490302246.341726, -0.167358, +1.019348, +0.236023, +3.845215, -8.956909, -13.137817
1490302246.341994, 1490302246.344448, -0.167358, +1.019348, +0.236023, +4.867554, -11.535645, -14.785767
1490302246.344710, 1490302246.347006, -0.132568, +1.016602, +0.207825, +4.867554, -11.535645, -14.785767
1490302246.347272, 1490302246.349559, -0.132568, +1.016602, +0.207825, +5.752563, -14.938354, -14.938354
1490302246.349823, 1490302246.352113, -0.132568, +1.016602, +0.207825, +5.752563, -14.938354, -14.938354
1490302246.352375, 1490302246.354710, -0.132568, +1.016602, +0.207825, +5.035400, -18.142700, -13.534546
1490302246.354981, 1490302246.357395, -0.159485, +1.025757, +0.251221, +5.035400, -18.142700, -13.534546
1490302246.357665, 1490302246.360078, -0.159485, +1.025757, +0.251221, +5.142212, -20.263672, -13.763428
1490302246.360347, 1490302246.362763, -0.159485, +1.025757, +0.251221, +5.142212, -20.263672, -13.763428
1490302246.363033, 1490302246.365447, -0.159485, +1.025757, +0.251221, +6.515503, -21.728516, -14.450073
1490302246.365719, 1490302246.368130, -0.188782, +0.991882, +0.269348, +6.515503, -21.728516, -14.450073
1490302246.368402, 1490302246.370814, -0.188782, +0.991882, +0.269348, +7.354736, -22.048950, -12.969971
1490302246.371085, 1490302246.373496, -0.188782, +0.991882, +0.269348, +7.354736, -22.048950, -12.969971
1490302246.373766, 1490302246.376232, -0.188782, +0.974487, +0.279419, +7.354736, -22.140503, -12.130737
1490302246.376502, 1490302246.378911, -0.193176, +0.974487, +0.279419, +7.034302, -22.140503, -12.130737
1490302246.379183, 1490302246.381599, -0.193176, +0.974487, +0.279419, +7.034302, -22.491455, -12.374878
1490302246.381872, 1490302246.384283, -0.193176, +0.974487, +0.279419, +7.186890, -22.491455, -12.374878
1490302246.384562, 1490302246.386976, -0.203979, +0.968994, +0.269897, +7.186890, -22.491455, -11.611938
1490302246.387249, 1490302246.389661, -0.203979, +0.968994, +0.269897, +8.255005, -21.621704, -11.611938
1490302246.389932, 1490302246.392344, -0.203979, +0.968994, +0.269897, +8.255005, -21.621704, -9.780884
1490302246.392611, 1490302246.395006, -0.203979, +0.968994, +0.266785, +7.690430, -21.408081, -9.780884
1490302246.395269, 1490302246.397562, -0.200867, +0.966064, +0.266785, +7.690430, -21.408081, -9.780884
1490302246.397824, 1490302246.400114, -0.200867, +0.966064, +0.266785, +7.537842, -21.316528, -10.086060
1490302246.400378, 1490302246.402674, -0.200867, +0.966064, +0.266785, +7.537842, -21.316528, -10.086060
1490302246.402937, 1490302246.405283, -0.200867, +0.979431, +0.248108, +8.026123, -20.324707, -9.201050
1490302246.405554, 1490302246.407965, -0.202332, +0.979431, +0.248108, +8.026123, -20.324707, -9.201050
1490302246.408233, 1490302246.410654, -0.202332, +0.979431, +0.248108, +7.644653, -19.760132, -7.629395
1490302246.410924, 1490302246.413336, -0.202332, +0.979431, +0.248108, +7.644653, -19.760132, -7.629395
1490302246.413728, 1490302246.416156, -0.215332, +0.990234, +0.253418, +6.927490, -19.165039, -6.942749
1490302246.416424, 1490302246.418847, -0.215332, +0.990234, +0.253418, +6.927490, -19.165039, -6.942749
1490302246.419114, 1490302246.421524, -0.215332, +0.990234, +0.253418, +7.965088, -18.814087, -7.644653
1490302246.421792, 1490302246.424206, -0.215332, +0.990234, +0.263123, +7.965088, -18.814087, -7.644653
1490302246.424484, 1490302246.426898, -0.204529, +0.995544, +0.263123, +9.506226, -17.990112, -7.247925
1490302246.427166, 1490302246.429577, -0.204529, +0.995544, +0.263123, +9.506226, -17.990112, -7.247925
1490302246.429845, 1490302246.432257, -0.204529, +0.995544, +0.263123, +9.902954, -17.639160, -6.042480
1490302246.432527, 1490302246.434949, -0.202148, +0.989502, +0.272461, +9.902954, -17.639160, -6.042480
1490302246.435217, 1490302246.437629, -0.202148, +0.989502, +0.272461, +10.223389, -18.295288, -4.974365
1490302246.437899, 1490302246.440317, -0.202148, +0.989502, +0.272461, +10.223389, -18.295288, -4.974365
1490302246.440588, 1490302246.443003, -0.202148, +0.989502, +0.272461, +10.543823, -19.744873, -5.233765
1490302246.443274, 1490302246.445642, -0.180359, +0.988586, +0.281250, +10.543823, -19.744873, -5.233765
1490302246.445906, 1490302246.448195, -0.180359, +0.988586, +0.281250, +14.450073, -20.172119, -5.981445
1490302246.448458, 1490302246.450749, -0.180359, +0.988586, +0.281250, +11.734009, -20.172119, -5.981445
1490302246.451012, 1490302246.453306, -0.180359, +0.988586, +0.282349, +11.734009, -20.172119, -5.203247
1490302246.453569, 1490302246.455988, -0.188599, +0.972290, +0.282349, +13.626099, -19.653320, -5.203247
1490302246.456260, 1490302246.458675, -0.188599, +0.972290, +0.282349, +13.626099, -19.653320, -3.829956
1490302246.458946, 1490302246.461360, -0.188599, +0.972290, +0.282349, +13.916016, -20.141602, -3.829956
1490302246.461633, 1490302246.464047, -0.210022, +0.948303, +0.277222, +13.916016, -20.141602, -7.736206
1490302246.464319, 1490302246.466773, -0.210022, +0.948303, +0.277222, +14.434814, -20.385742, -3.967285
1490302246.467044, 1490302246.469455, -0.210022, +0.948303, +0.277222, +14.434814, -20.385742, -3.967285
1490302246.469724, 1490302246.472142, -0.210022, +0.948303, +0.277222, +15.396118, -18.890381, -4.409790
1490302246.472414, 1490302246.474843, -0.226868, +0.938049, +0.252319, +15.396118, -18.890381, -4.409790
1490302246.475113, 1490302246.477523, -0.226868, +0.938049, +0.252319, +15.411377, -16.845703, -2.807617
1490302246.477796, 1490302246.480200, -0.226868, +0.938049, +0.252319, +15.411377, -16.845703, -2.807617
1490302246.480471, 1490302246.482887, -0.226868, +0.956726, +0.229980, +14.526367, -15.380859, -2.182007
1490302246.483158, 1490302246.485581, -0.216064, +0.956726, +0.229980, +14.526367, -15.380859, -2.182007
1490302246.485853, 1490302246.488267, -0.216064, +0.956726, +0.229980, +14.984131, -13.305664, -2.746582
1490302246.488538, 1490302246.490953, -0.216064, +0.956726, +0.229980, +14.984131, -13.305664, -2.746582
1490302246.491224, 1490302246.493637, -0.214233, +0.958923, +0.227417, +15.396118, -9.857178, -1.983643
1490302246.493906, 1490302246.496243, -0.214233, +0.958923, +0.227417, +15.396118, -9.857178, -1.983643
1490302246.496504, 1490302246.498787, -0.214233, +0.958923, +0.227417, +14.938354, -7.980347, -0.091553
1490302246.499049, 1490302246.501338, -0.214233, +0.958923, +0.227417, +14.938354, -7.980347, -0.091553
1490302246.501599, 1490302246.503888, -0.200134, +0.966064, +0.248108, +14.373779, -7.263184, +0.015259
1490302246.504150, 1490302246.506557, -0.200134, +0.966064, +0.248108, +14.373779, -7.263184, +0.015259
1490302246.506826, 1490302246.509239, -0.200134, +0.966064, +0.248108, +14.373779, -6.011963, -1.037598
1490302246.509507, 1490302246.511923, -0.200134, +1.012939, +0.270813, +14.953613, -6.011963, -1.037598
1490302246.512192, 1490302246.514645, -0.217712, +0.991699, +0.270813, +14.953613, -5.645752, -0.564575
1490302246.514914, 1490302246.517327, -0.217712, +0.991699, +0.270813, +15.228271, -5.645752, -0.564575
1490302246.517700, 1490302246.520113, -0.217712, +0.991699, +0.270813, +15.228271, -6.927490, -0.778198
1490302246.520380, 1490302246.522791, -0.183838, +0.983643, +0.266785, +14.587402, -6.927490, -0.778198
1490302246.523059, 1490302246.525484, -0.183838, +0.983643, +0.266785, +14.587402, -6.927490, -1.525879
1490302246.525752, 1490302246.528164, -0.183838, +0.983643, +0.266785, +15.213013, -7.156372, -1.525879
1490302246.528431, 1490302246.530847, -0.183838, +0.983643, +0.266785, +15.213013, -7.156372, -1.312256
1490302246.531115, 1490302246.533531, -0.175964, +0.995361, +0.252686, +15.686035, -7.324219, -1.312256
1490302246.533799, 1490302246.536257, -0.175964, +0.995361, +0.252686, +15.686035, -7.324219, -1.434326
1490302246.536523, 1490302246.538937, -0.175964, +0.995361, +0.252686, +15.274048, -7.919312, -1.434326
1490302246.539205, 1490302246.541620, -0.175964, +0.988586, +0.233276, +15.274048, -7.919312, -1.434326
1490302246.541887, 1490302246.544299, -0.147766, +0.988586, +0.233276, +15.258789, -8.575439, -3.051758
1490302246.544570, 1490302246.546864, -0.147766, +0.988586, +0.233276, +15.258789, -8.575439, -3.051758
1490302246.547126, 1490302246.549415, -0.147766, +0.988586, +0.233276, +16.098022, -7.919312, -3.601074
1490302246.549676, 1490302246.551975, -0.172119, +0.975769, +0.223206, +16.098022, -7.919312, -3.601074
1490302246.552236, 1490302246.554604, -0.172119, +0.975769, +0.223206, +15.853882, -7.568359, -2.487183
1490302246.554873, 1490302246.557287, -0.172119, +0.975769, +0.223206, +15.853882, -7.568359, -2.487183
1490302246.557556, 1490302246.559977, -0.172119, +0.975769, +0.223206, +15.045166, -7.644653, -2.243042
1490302246.560246, 1490302246.562661, -0.184753, +0.984375, +0.227234, +15.045166, -7.644653, -2.243042
1490302246.562928, 1490302246.565349, -0.184753, +0.984375, +0.227234, +15.045166, -7.934570, -2.456665
1490302246.565616, 1490302246.568038, -0.184753, +0.984375, +0.227234, +15.045166, -7.934570, -2.456665
1490302246.568305, 1490302246.570714, -0.184753, +0.994812, +0.239502, +15.121460, -8.255005, -3.173828
1490302246.570983, 1490302246.573402, -0.177246, +0.994812, +0.239502, +15.121460, -8.255005, -3.173828
1490302246.573671, 1490302246.576096, -0.177246, +0.994812, +0.239502, +16.525269, -7.492065, -3.204346
1490302246.576363, 1490302246.578774, -0.177246, +0.994812, +0.239502, +16.525269, -7.492065, -3.204346
1490302246.579042, 1490302246.581456, -0.186401, +0.970825, +0.256531, +16.799927, -7.110596, -1.708984
1490302246.581723, 1490302246.584138, -0.186401, +0.970825, +0.256531, +16.799927, -7.110596, -1.708984
1490302246.584447, 1490302246.586863, -0.186401, +0.970825, +0.256531, +16.799927, -7.034302, -0.747681
1490302246.587132, 1490302246.589552, -0.186401, +0.970825, +0.251038, +15.853882, -7.034302, -0.747681
1490302246.589820, 1490302246.592231, -0.195740, +0.951965, +0.251038, +15.853882, -7.415771, -0.930786
1490302246.592500, 1490302246.594913, -0.195740, +0.951965, +0.251038, +15.502930, -7.415771, -0.930786
1490302246.595174, 1490302246.597463, -0.195740, +0.951965, +0.251038, +15.502930, -7.415771, -0.869751
1490302246.597726, 1490302246.600014, -0.191162, +0.951050, +0.214600, +16.693115, -6.591797, -0.869751
1490302246.600276, 1490302246.602570, -0.191162, +0.951050, +0.214600, +16.693115, -6.591797, +3.036499
1490302246.602830, 1490302246.605126, -0.191162, +0.951050, +0.214600, +17.089844, -5.401611, +0.625610
1490302246.605386, 1490302246.607673, -0.191162, +0.951050, +0.214600, +17.089844, -5.401611, +0.625610
1490302246.607936, 1490302246.610228, -0.191345, +0.973206, +0.197754, +15.991211, -5.416870, +1.693726
1490302246.610489, 1490302246.612775, -0.191345, +0.973206, +0.197754, +15.991211, -5.416870, +1.693726
1490302246.613037, 1490302246.615377, -0.191345, +0.973206, +0.197754, +16.021729, -5.249023, +0.762939
1490302246.615646, 1490302246.618059, -0.191345, +0.973206, +0.197754, +16.021729, -5.249023, +0.762939
1490302246.618327, 1490302246.620741, -0.208191, +0.997192, +0.210754, +15.991211, -3.601074, +1.922607
1490302246.621009, 1490302246.623429, -0.208191, +0.997192, +0.210754, +15.991211, -3.601074, +1.922607
1490302246.623803, 1490302246.626258, -0.208191, +0.997192, +0.210754, +14.450073, -2.426147, +3.601074
1490302246.626528, 1490302246.628939, -0.208191, +1.007080, +0.231079, +14.450073, -2.426147, +3.601074
1490302246.629205, 1490302246.631621, -0.243347, +1.007080, +0.231079, +13.641357, -0.808716, +3.417969
1490302246.631889, 1490302246.634299, -0.243347, +1.007080, +0.231079, +13.641357, -0.808716, +3.417969
1490302246.634569, 1490302246.636983, -0.243347, +1.007080, +0.231079, +14.816284, +2.059937, +3.448486
1490302246.637250, 1490302246.639665, -0.218994, +1.001221, +0.247375, +14.816284, +2.059937, +3.448486
1490302246.639932, 1490302246.642347, -0.218994, +1.001221, +0.247375, +14.816284, +3.784180, +4.531860
1490302246.642616, 1490302246.645038, -0.218994, +1.001221, +0.247375, +14.739990, +3.784180, +4.531860
1490302246.645304, 1490302246.647713, -0.218994, +1.001221, +0.247375, +14.739990, +3.433228, +4.226685
1490302246.647980, 1490302246.650391, -0.132568, +0.981995, +0.253052, +13.946533, +3.433228, +4.226685
1490302246.650660, 1490302246.653072, -0.132568, +0.981995, +0.253052, +13.946533, +3.433228, +2.838135
1490302246.653338, 1490302246.655687, -0.132568, +0.981995, +0.253052, +14.526367, +1.785278, +2.838135
1490302246.655947, 1490302246.658237, -0.132568, +0.972107, +0.226685, +14.526367, +1.785278, +2.410889
1490302246.658498, 1490302246.660785, -0.107117, +0.972107, +0.226685, +15.457153, +0.259399, +2.410889
1490302246.661048, 1490302246.663333, -0.107117, +0.972107, +0.226685, +15.457153, +0.259399, +2.410889
1490302246.663594, 1490302246.665978, -0.107117, +0.972107, +0.226685, +14.328003, -1.800537, +2.578735
1490302246.666248, 1490302246.668662, -0.101074, +0.959290, +0.200317, +14.328003, -1.800537, +2.578735
1490302246.668930, 1490302246.671345, -0.101074, +0.959290, +0.200317, +14.373779, -3.707886, +1.022339
1490302246.671613, 1490302246.674028, -0.101074, +0.959290, +0.200317, +14.373779, -3.707886, +1.022339
1490302246.674297, 1490302246.676717, -0.101074, +0.959290, +0.200317, +14.541626, -4.058838, +0.320435
1490302246.676987, 1490302246.679399, -0.136780, +0.968811, +0.181824, +14.541626, -4.058838, +0.320435
1490302246.679668, 1490302246.682076, -0.136780, +0.968811, +0.181824, +13.870239, -3.906250, +1.220703
1490302246.682346, 1490302246.684762, -0.136780, +0.968811, +0.181824, +13.870239, -3.906250, +1.220703
1490302246.685030, 1490302246.687445, -0.183655, +0.992981, +0.171753, +13.442993, -3.463745, +1.403809
1490302246.687713, 1490302246.690122, -0.186768, +0.992981, +0.171753, +13.442993, -3.463745, +1.403809
1490302246.690389, 1490302246.692799, -0.186768, +0.992981, +0.171753, +13.442993, -1.434326, +0.854492
1490302246.693066, 1490302246.695493, -0.186768, +0.992981, +0.171753, +13.442993, -1.434326, +0.854492
1490302246.695759, 1490302246.698168, -0.194458, +0.989502, +0.193359, +12.634277, +1.083374, +2.639771
1490302246.698438, 1490302246.700853, -0.194458, +0.989502, +0.193359, +12.634277, +1.083374, +2.639771
1490302246.701121, 1490302246.703532, -0.194458, +0.989502, +0.193359, +11.428833, +2.853394, +2.685547
1490302246.703800, 1490302246.706165, -0.194458, +0.989502, +0.191162, +11.428833, +2.853394, +2.685547
1490302246.706426, 1490302246.708722, -0.194458, +0.983276, +0.191162, +15.335083, +4.699707, +2.227783
1490302246.708983, 1490302246.711267, -0.194458, +0.983276, +0.191162, +12.145996, +4.699707, +2.227783
1490302246.711527, 1490302246.713813, -0.194458, +0.983276, +0.191162, +12.145996, +4.699707, +3.692627
1490302246.714075, 1490302246.716495, -0.194458, +0.990784, +0.210022, +12.008667, +6.958008, +3.692627
1490302246.716763, 1490302246.719178, -0.178894, +0.990784, +0.210022, +12.008667, +6.958008, +3.845215
1490302246.719445, 1490302246.721861, -0.178894, +0.990784, +0.210022, +10.803223, +7.705688, +3.845215
1490302246.722130, 1490302246.724549, -0.178894, +0.990784, +0.210022, +10.803223, +7.705688, +3.845215
1490302246.724816, 1490302246.727231, -0.146301, +0.995361, +0.237305, +11.520386, +7.919312, +2.380371
1490302246.727606, 1490302246.730029, -0.146301, +0.995361, +0.237305, +11.520386, +7.919312, +2.380371
1490302246.730299, 1490302246.732705, -0.146301, +0.995361, +0.237305, +12.268066, +7.919312, +2.517700
1490302246.732972, 1490302246.735437, -0.146301, +0.995361, +0.262756, +12.268066, +7.919312, +2.517700
1490302246.735704, 1490302246.738121, -0.144104, +1.009827, +0.262756, +12.466431, +5.966187, +2.822876
1490302246.738388, 1490302246.740795, -0.144104, +1.009827, +0.262756, +12.466431, +5.966187, +2.822876
1490302246.741062, 1490302246.743475, -0.144104, +1.009827, +0.262756, +13.000488, +3.067017, +1.220703
1490302246.743743, 1490302246.746174, -0.059875, +0.982910, +0.269165, +13.000488, +3.067017, +1.220703
1490302246.746443, 1490302246.748856, -0.059875, +0.982910, +0.269165, +14.221191, -0.305176, +0.350952
1490302246.749128, 1490302246.751541, -0.059875, +0.982910, +0.269165, +14.221191, -0.305176, +0.350952
1490302246.751811, 1490302246.754217, -0.059875, +0.982910, +0.269165, +14.663696, -3.234863, +0.686646
1490302246.754496, 1490302246.756784, -0.072144, +0.942444, +0.280151, +14.663696, -3.234863, +0.686646
1490302246.757047, 1490302246.759337, -0.072144, +0.942444, +0.280151, +14.022827, -6.713867, -0.320435
1490302246.759600, 1490302246.761884, -0.072144, +0.942444, +0.280151, +14.022827, -6.713867, -0.320435
1490302246.762145, 1490302246.764474, -0.072144, +0.942444, +0.280151, +15.304565, -8.331299, -1.785278
1490302246.764745, 1490302246.767159, -0.130371, +0.968994, +0.245544, +15.304565, -8.331299, -1.785278
1490302246.767427, 1490302246.769837, -0.130371, +0.968994, +0.245544, +19.210815, -8.407593, -1.327515
1490302246.770106, 1490302246.772524, -0.130371, +0.968994, +0.245544, +16.967773, -8.407593, -1.327515
1490302246.772792, 1490302246.775243, -0.167175, +1.009460, +0.214417, +16.967773, -8.255005, -0.183105
1490302246.775514, 1490302246.777925, -0.167175, +1.009460, +0.214417, +16.204834, -8.255005, -0.183105
1490302246.778192, 1490302246.780608, -0.167175, +1.009460, +0.214417, +16.204834, -4.348755, -0.045776
1490302246.780878, 1490302246.783292, -0.167175, +1.009460, +0.214417, +15.197754, -7.781982, -0.045776
1490302246.783559, 1490302246.786043, -0.173584, +1.028137, +0.179077, +15.197754, -7.781982, -0.534058
1490302246.786312, 1490302246.788728, -0.173584, +1.028137, +0.179077, +15.258789, -6.698608, -0.534058
1490302246.788989, 1490302246.791280, -0.173584, +1.028137, +0.179077, +15.258789, -6.698608, -0.091553
1490302246.791542, 1490302246.793833, -0.173584, +1.028137, +0.183289, +16.174316, -4.913330, -0.091553
1490302246.794096, 1490302246.796577, -0.185669, +1.024841, +0.183289, +16.174316, -4.913330, +3.814697
1490302246.796842, 1490302246.799219, -0.185669, +1.024841, +0.183289, +15.563965, -3.433228, +1.815796
1490302246.799484, 1490302246.801974, -0.185669, +1.024841, +0.183289, +15.563965, -3.433228, +1.815796
1490302246.802238, 1490302246.805710, -0.202698, +1.024658, +0.200867, +14.389038, -2.609253, +2.975464
1490302246.805976, 1490302246.808262, -0.202698, +1.024658, +0.200867, +14.389038, -2.609253, +2.761841
1490302246.808523, 1490302246.810804, -0.202698, +1.024658, +0.200867, +14.648438, -2.075195, +2.761841
1490302246.811063, 1490302246.813347, -0.202698, +1.024658, +0.221008, +14.648438, -2.075195, +2.761841
1490302246.813607, 1490302246.815904, -0.159851, +1.013489, +0.221008, +15.502930, -0.823975, +2.899170
1490302246.816166, 1490302246.818446, -0.159851, +1.013489, +0.221008, +15.502930, -0.823975, +2.899170
1490302246.818706, 1490302246.820988, -0.159851, +1.013489, +0.221008, +15.625000, +0.076294, +3.967285
1490302246.821249, 1490302246.823534, -0.112976, +0.942993, +0.246826, +15.625000, +0.076294, +3.967285
1490302246.823796, 1490302246.826082, -0.116272, +0.942993, +0.246826, +14.389038, -0.701904, +5.142212
1490302246.826343, 1490302246.828626, -0.116272, +0.942993, +0.246826, +14.389038, -0.701904, +5.142212
1490302246.828887, 1490302246.831171, -0.116272, +0.942993, +0.246826, +13.641357, -2.227783, +4.608154
1490302246.831433, 1490302246.833716, -0.082214, +0.888062, +0.242615, +13.641357, -2.227783, +4.608154
1490302246.834093, 1490302246.836385, -0.082214, +0.888062, +0.242615, +14.038086, -3.417969, +3.173828
1490302246.836646, 1490302246.838934, -0.082214, +0.888062, +0.242615, +14.038086, -3.417969, +3.173828
1490302246.839196, 1490302246.841479, -0.082214, +0.888062, +0.242615, +14.038086, -7.324219, +2.792358
1490302246.841742, 1490302246.844022, -0.091370, +0.944092, +0.196838, +14.633179, -4.180908, +2.792358
1490302246.844284, 1490302246.846597, -0.091370, +0.944092, +0.196838, +14.633179, -4.180908, +2.792358
1490302246.846859, 1490302246.849142, -0.091370, +0.944092, +0.196838, +14.083862, -5.249023, +2.578735
1490302246.849402, 1490302246.851689, -0.091370, +0.944092, +0.196838, +14.083862, -5.249023, +2.578735
1490302246.851951, 1490302246.854233, -0.145569, +1.069885, +0.122131, +14.297485, -6.423950, +0.869751
1490302246.854628, 1490302246.856921, -0.145569, +1.069885, +0.122131, +14.297485, -6.423950, +0.869751
1490302246.857183, 1490302246.859467, -0.145569, +1.069885, +0.122131, +14.953613, -5.096436, +0.152588
1490302246.859728, 1490302246.862016, -0.145569, +1.210510, +0.074158, +14.953613, -5.096436, +0.152588
1490302246.862278, 1490302246.864606, -0.194458, +1.190369, +0.074158, +14.297485, -0.366211, +1.373291
1490302246.864878, 1490302246.867287, -0.194458, +1.190369, +0.074158, +14.297485, -0.366211, +1.373291
1490302246.867554, 1490302246.869967, -0.194458, +1.190369, +0.074158, +11.505127, +0.656128, +3.051758
1490302246.870236, 1490302246.872644, -0.138794, +0.960022, +0.079834, +11.505127, +0.656128, +3.051758
1490302246.872913, 1490302246.875327, -0.138794, +0.960022, +0.079834, +8.651733, +2.044678, +3.082275
1490302246.875592, 1490302246.878005, -0.138794, +0.960022, +0.079834, +8.651733, +2.044678, +3.082275
1490302246.878270, 1490302246.880682, -0.138794, +0.960022, +0.079834, +8.651733, +5.569458, +3.036499
1490302246.880948, 1490302246.883362, -0.135681, +0.852173, +0.266235, +8.163452, +5.569458, +3.036499
1490302246.883626, 1490302246.886047, -0.135681, +0.852173, +0.266235, +8.163452, +7.720947, +3.707886
1490302246.886313, 1490302246.888730, -0.135681, +0.852173, +0.266235, +9.368896, +7.720947, +3.707886
1490302246.888995, 1490302246.891410, -0.135681, +0.945923, +0.331970, +9.368896, +7.720947, +2.746582
1490302246.891674, 1490302246.894081, -0.107849, +0.965698, +0.331970, +10.360718, +7.064819, +2.746582
1490302246.894350, 1490302246.896770, -0.107849, +0.965698, +0.331970, +10.360718, +7.064819, +1.251221
1490302246.897039, 1490302246.899452, -0.107849, +0.965698, +0.331970, +12.985229, +3.402710, +1.251221
1490302246.899721, 1490302246.902127, -0.099609, +1.063477, +0.307434, +12.985229, +3.402710, +1.358032
1490302246.902394, 1490302246.904833, -0.099609, +1.063477, +0.307434, +15.716553, +0.244141, +1.358032
1490302246.905095, 1490302246.907381, -0.099609, +1.063477, +0.307434, +15.716553, +0.244141, +1.358032
1490302246.907644, 1490302246.909937, -0.099609, +1.063477, +0.307434, +16.448975, -1.754761, +2.975464
1490302246.910199, 1490302246.912490, -0.122864, +1.036743, +0.275208, +16.448975, -1.754761, +2.975464
1490302246.912752, 1490302246.915086, -0.122864, +1.036743, +0.275208, +16.433716, -3.814697, +3.204346
1490302246.915355, 1490302246.917767, -0.122864, +1.036743, +0.275208, +16.433716, -3.814697, +3.204346
1490302246.918035, 1490302246.920504, -0.122864, +0.989868, +0.246643, +18.066406, -4.913330, +2.532959
1490302246.920815, 1490302246.923225, -0.139526, +1.017151, +0.246643, +18.066406, -4.913330, +2.532959
1490302246.923492, 1490302246.925917, -0.139526, +1.017151, +0.246643, +18.920898, -4.577637, +3.631592
1490302246.926183, 1490302246.928590, -0.139526, +1.017151, +0.246643, +18.920898, -4.577637, +3.631592
1490302246.928858, 1490302246.931265, -0.139709, +1.015137, +0.237671, +19.088745, -5.157471, +4.638672
1490302246.931532, 1490302246.933946, -0.139709, +1.015137, +0.237671, +19.088745, -5.157471, +4.638672
1490302246.934213, 1490302246.936634, -0.139709, +1.015137, +0.237671, +20.217896, -5.783081, +4.226685
1490302246.937018, 1490302246.939434, -0.139709, +1.015137, +0.237671, +20.217896, -5.783081, +4.226685
1490302246.939701, 1490302246.942106, -0.122131, +1.024292, +0.236206, +21.102905, -6.698608, +5.691528
1490302246.942374, 1490302246.944830, -0.122131, +1.024292, +0.236206, +21.102905, -6.698608, +5.691528
1490302246.945099, 1490302246.947512, -0.122131, +1.024292, +0.236206, +20.965576, -8.880615, +6.286621
1490302246.947780, 1490302246.950185, -0.122131, +1.026855, +0.255615, +20.965576, -8.880615, +6.286621
1490302246.950453, 1490302246.952858, -0.115906, +1.026855, +0.255615, +22.415161, -10.986328, +5.554199
1490302246.953128, 1490302246.955496, -0.115906, +1.026855, +0.255615, +22.415161, -10.986328, +5.554199
1490302246.955760, 1490302246.958045, -0.115906, +1.026855, +0.255615, +22.415161, -12.924194, +6.744385
1490302246.958310, 1490302246.960599, -0.104004, +1.023010, +0.256531, +23.620605, -12.924194, +6.744385
1490302246.960864, 1490302246.963146, -0.104004, +1.023010, +0.256531, +23.620605, -12.924194, +7.369995
1490302246.963410, 1490302246.965781, -0.104004, +1.023010, +0.256531, +23.635864, -15.670776, +7.369995
1490302246.966047, 1490302246.968342, -0.104004, +1.023010, +0.256531, +23.635864, -15.670776, +7.369995
1490302246.968606, 1490302246.970890, -0.125061, +1.011658, +0.222839, +24.200439, -17.196655, +6.210327
1490302246.971152, 1490302246.973438, -0.125061, +1.011658, +0.222839, +24.200439, -17.196655, +6.210327
1490302246.973701, 1490302246.976176, -0.125061, +1.011658, +0.222839, +25.863647, -16.387939, +5.966187
1490302246.976445, 1490302246.978844, -0.125061, +1.011658, +0.201416, +25.863647, -16.387939, +5.966187
1490302246.979112, 1490302246.981516, -0.150879, +1.017334, +0.201416, +26.260376, -14.358521, +7.019043
1490302246.981786, 1490302246.984190, -0.150879, +1.017334, +0.201416, +26.260376, -14.358521, +7.019043
1490302246.984470, 1490302246.986871, -0.150879, +1.017334, +0.201416, +26.168823, -12.634277, +7.659912
1490302246.987141, 1490302246.989545, -0.158020, +1.032349, +0.174316, +26.168823, -12.634277, +7.659912
1490302246.989815, 1490302246.992366, -0.158020, +1.032349, +0.174316, +27.191162, -9.735107, +7.034302
1490302246.992628, 1490302246.995252, -0.158020, +1.032349, +0.174316, +27.191162, -9.735107, +7.034302
1490302246.995538, 1490302246.997822, -0.158020, +1.032349, +0.174316, +28.442383, -6.607056, +7.415771
1490302246.998085, 1490302247.000369, -0.148499, +1.049011, +0.152710, +28.442383, -6.607056, +7.415771
1490302247.000630, 1490302247.002916, -0.148499, +1.049011, +0.152710, +27.282715, -3.784180, +8.850098
1490302247.003177, 1490302247.005642, -0.148499, +1.049011, +0.152710, +27.282715, -3.784180, +8.850098
1490302247.005910, 1490302247.008289, -0.148499, +1.069153, +0.145935, +25.588989, -1.983643, +8.743286
1490302247.008555, 1490302247.011032, -0.155090, +1.069153, +0.145935, +25.588989, -1.983643, +8.743286
1490302247.011298, 1490302247.013682, -0.155090, +1.069153, +0.145935, +25.588989, -0.411987, +8.941650
1490302247.014740, 1490302247.017156, -0.155090, +1.069153, +0.145935, +26.672363, -0.411987, +8.941650
1490302247.017427, 1490302247.019838, -0.186584, +1.078857, +0.133484, +26.428223, +0.808716, +11.337280
1490302247.020108, 1490302247.022523, -0.186584, +1.078857, +0.133484, +26.428223, +0.808716, +11.337280
1490302247.022794, 1490302247.025253, -0.186584, +1.078857, +0.133484, +25.939941, +0.610352, +11.856079
1490302247.025523, 1490302247.027938, -0.186584, +1.129395, +0.164978, +25.939941, +0.610352, +11.856079
1490302247.028209, 1490302247.030627, -0.211487, +1.129395, +0.164978, +27.511597, +1.663208, +10.696411
1490302247.030899, 1490302247.033310, -0.211487, +1.129395, +0.164978, +27.511597, +1.663208, +10.696411
1490302247.033582, 1490302247.036037, -0.211487, +1.129395, +0.164978, +28.915405, +1.312256, +11.520386
1490302247.036307, 1490302247.038722, -0.175781, +1.237061, +0.178162, +28.915405, +1.312256, +11.520386
1490302247.038992, 1490302247.041406, -0.175781, +1.237061, +0.178162, +28.915405, -1.068115, +13.412476
1490302247.041831, 1490302247.044247, -0.175781, +1.237061, +0.178162, +28.656006, -1.068115, +13.412476
1490302247.044529, 1490302247.046814, -0.175781, +1.237061, +0.168640, +28.656006, -4.974365, +12.786865
1490302247.047078, 1490302247.049357, -0.182007, +1.330994, +0.168640, +28.747559, -4.974365, +12.786865
1490302247.049620, 1490302247.051907, -0.182007, +1.330994, +0.168640, +28.747559, -4.974365, +11.322021
1490302247.052171, 1490302247.054491, -0.182007, +1.330994, +0.168640, +30.258179, -8.148193, +11.322021
1490302247.054755, 1490302247.057044, -0.228882, +1.355347, +0.170105, +30.258179, -8.148193, +11.322021
1490302247.057308, 1490302247.059597, -0.191345, +1.355347, +0.170105, +31.799316, -9.719849, +12.329102
1490302247.059863, 1490302247.062150, -0.191345, +1.355347, +0.170105, +31.799316, -9.719849, +12.329102
1490302247.062414, 1490302247.064808, -0.191345, +1.355347, +0.170105, +32.699585, -11.322021, +14.373779
1490302247.065074, 1490302247.067366, -0.227966, +1.377686, +0.200500, +32.699585, -11.322021, +14.373779
1490302247.067632, 1490302247.069918, -0.227966, +1.377686, +0.200500, +32.684326, -12.542725, +16.036987
1490302247.070183, 1490302247.072466, -0.227966, +1.377686, +0.200500, +32.684326, -12.542725, +16.036987
1490302247.072730, 1490302247.075182, -0.227966, +1.377686, +0.200500, +33.340454, -14.053345, +17.395020
1490302247.075456, 1490302247.077870, -0.310547, +1.431702, +0.239685, +33.340454, -14.053345, +17.395020
1490302247.078145, 1490302247.080560, -0.310547, +1.431702, +0.239685, +34.103394, -14.389038, +18.447876
1490302247.080835, 1490302247.083244, -0.310547, +1.431702, +0.239685, +34.103394, -14.389038, +18.447876
1490302247.083518, 1490302247.085944, -0.310547, +1.478577, +0.237305, +34.301758, -14.816284, +18.371582
1490302247.086218, 1490302247.088630, -0.314209, +1.488281, +0.237305, +34.301758, -14.816284, +18.371582
1490302247.088903, 1490302247.091314, -0.314209, +1.488281, +0.237305, +34.301758, -17.532349, +18.157959
1490302247.091588, 1490302247.094008, -0.314209, +1.488281, +0.237305, +34.393311, -17.532349, +18.157959
1490302247.094283, 1490302247.096593, -0.350098, +1.500732, +0.176147, +34.393311, -21.301270, +17.913818
1490302247.096860, 1490302247.099150, -0.350098, +1.500732, +0.176147, +33.386230, -21.301270, +17.913818
1490302247.099416, 1490302247.101702, -0.350098, +1.500732, +0.176147, +33.386230, -21.301270, +16.174316
1490302247.101969, 1490302247.104255, -0.350098, +1.500732, +0.176147, +34.286499, -25.711060, +16.174316
1490302247.104520, 1490302247.106809, -0.363464, +1.479492, +0.134949, +34.286499, -25.711060, +16.174316
1490302247.107077, 1490302247.109369, -0.363464, +1.479492, +0.134949, +35.934448, -26.885986, +14.236450
1490302247.109634, 1490302247.111922, -0.363464, +1.479492, +0.134949, +35.934448, -26.885986, +14.236450
1490302247.112186, 1490302247.114491, -0.363464, +1.479492, +0.088074, +35.858154, -27.191162, +13.717651
1490302247.114758, 1490302247.117047, -0.323914, +1.454224, +0.082397, +35.858154, -27.191162, +13.717651
1490302247.117312, 1490302247.119598, -0.323914, +1.454224, +0.082397, +34.072876, -29.037476, +14.251709
1490302247.119865, 1490302247.122149, -0.323914, +1.454224, +0.082397, +34.072876, -29.037476, +14.251709
1490302247.122416, 1490302247.124790, -0.323914, +1.360474, +0.070129, +33.279419, -30.151367, +13.305664
1490302247.125057, 1490302247.127344, -0.355774, +1.398560, +0.070129, +33.279419, -30.151367, +13.305664
1490302247.127611, 1490302247.129901, -0.355774, +1.398560, +0.070129, +33.279419, -29.861450, +11.520386
1490302247.130169, 1490302247.132452, -0.355774, +1.398560, +0.070129, +33.950806, -29.861450, +11.520386
1490302247.132719, 1490302247.135099, -0.411804, +1.322571, +0.113708, +33.950806, -29.861450, +12.435913
1490302247.135375, 1490302247.137786, -0.411804, +1.322571, +0.113708, +33.798218, -28.152466, +12.435913
1490302247.138061, 1490302247.140475, -0.411804, +1.322571, +0.113708, +33.798218, -28.152466, +13.473511
1490302247.140759, 1490302247.143184, -0.411804, +1.322571, +0.113708, +32.424927, -25.985718, +13.473511
1490302247.143582, 1490302247.145961, -0.435974, +1.296570, +0.159119, +32.424927, -25.985718, +13.656616
1490302247.146229, 1490302247.148515, -0.435974, +1.296570, +0.159119, +30.868530, -24.002075, +13.656616
1490302247.148781, 1490302247.151068, -0.435974, +1.296570, +0.159119, +30.868530, -24.002075, +13.656616
1490302247.151334, 1490302247.153615, -0.435974, +1.296570, +0.200500, +29.647827, -22.033691, +14.343262
1490302247.153881, 1490302247.156291, -0.417664, +1.255920, +0.200500, +29.647827, -22.033691, +14.343262
1490302247.156567, 1490302247.158979, -0.417664, +1.255920, +0.200500, +29.861450, -19.668579, +15.869141
1490302247.159252, 1490302247.161662, -0.417664, +1.255920, +0.200500, +29.861450, -19.668579, +15.869141
1490302247.161936, 1490302247.164353, -0.350647, +1.215088, +0.249207, +29.388428, -16.860962, +18.264771
1490302247.164674, 1490302247.167085, -0.350647, +1.215088, +0.249207, +29.388428, -16.860962, +18.264771
1490302247.167359, 1490302247.169764, -0.350647, +1.215088, +0.249207, +29.571533, -10.726929, +22.186279
1490302247.170038, 1490302247.172452, -0.350647, +1.215088, +0.249207, +29.571533, -10.726929, +22.186279
1490302247.172725, 1490302247.175123, -0.234375, +1.247314, +0.313110, +30.349731, +0.534058, +27.069092
1490302247.175387, 1490302247.177678, -0.234375, +1.247314, +0.313110, +30.349731, +0.534058, +27.069092
1490302247.177942, 1490302247.180230, -0.234375, +1.247314, +0.313110, +30.059814, +13.000488, +34.057617
1490302247.180496, 1490302247.182781, -0.234375, +1.247314, +0.337463, +30.059814, +13.000488, +34.057617
1490302247.183046, 1490302247.185491, -0.193359, +1.293640, +0.337463, +30.059814, +18.768311, +41.122437
1490302247.185759, 1490302247.188050, -0.193359, +1.293640, +0.337463, +27.877808, +18.768311, +41.122437
1490302247.188316, 1490302247.190600, -0.193359, +1.293640, +0.337463, +27.877808, +22.674561, +47.531128
1490302247.190866, 1490302247.193160, -0.193359, +1.373840, +0.384521, +25.054932, +22.598267, +47.531128
1490302247.193426, 1490302247.195869, -0.228333, +1.373840, +0.384521, +25.054932, +22.598267, +52.947998
1490302247.196134, 1490302247.198422, -0.228333, +1.373840, +0.384521, +23.849487, +25.650024, +52.947998
1490302247.198687, 1490302247.200976, -0.228333, +1.373840, +0.384521, +23.849487, +25.650024, +52.947998
1490302247.201243, 1490302247.203531, -0.226501, +1.351318, +0.341675, +23.880005, +28.091431, +56.320190
1490302247.203798, 1490302247.206188, -0.226501, +1.351318, +0.341675, +23.880005, +28.091431, +56.320190
1490302247.206461, 1490302247.208876, -0.226501, +1.351318, +0.341675, +24.185181, +31.631470, +59.860229
1490302247.209150, 1490302247.211559, -0.226501, +1.351318, +0.341675, +24.185181, +31.631470, +59.860229
1490302247.211832, 1490302247.214254, +0.006226, +1.282654, +0.319885, +23.681641, +32.150269, +64.605713
1490302247.214539, 1490302247.216948, +0.006226, +1.282654, +0.319885, +23.681641, +32.150269, +64.605713
1490302247.217223, 1490302247.219638, +0.006226, +1.282654, +0.319885, +22.735596, +29.098511, +69.534302
1490302247.219912, 1490302247.222318, +0.006226, +1.279724, +0.351746, +22.735596, +29.098511, +69.534302
1490302247.222592, 1490302247.225067, +0.137512, +1.279724, +0.351746, +21.926880, +26.382446, +74.539185
1490302247.225340, 1490302247.227757, +0.137512, +1.279724, +0.351746, +21.926880, +26.382446, +74.539185
1490302247.228030, 1490302247.230440, +0.137512, +1.279724, +0.351746, +20.736694, +22.552490, +78.369141
1490302247.230713, 1490302247.233125, +0.317322, +1.324219, +0.336731, +20.736694, +22.552490, +78.369141
1490302247.233399, 1490302247.235859, +0.317322, +1.324219, +0.336731, +19.851685, +16.891479, +81.344604
1490302247.236133, 1490302247.238546, +0.317322, +1.324219, +0.336731, +19.851685, +16.891479, +81.344604
1490302247.238819, 1490302247.241233, +0.317322, +1.324219, +0.315125, +19.088745, +8.773804, +83.007812
1490302247.241503, 1490302247.243919, +0.509216, +1.405151, +0.315125, +19.088745, +8.773804, +83.007812
1490302247.244190, 1490302247.246546, +0.509216, +1.405151, +0.315125, +20.355225, -1.953125, +84.579468
1490302247.246918, 1490302247.249215, +0.509216, +1.405151, +0.315125, +20.355225, -1.953125, +84.579468
1490302247.249479, 1490302247.251768, +0.532471, +1.571594, +0.227051, +20.355225, -12.802124, +86.654663
1490302247.252035, 1490302247.254325, +0.532471, +1.571594, +0.227051, +24.261475, -12.802124, +86.654663
1490302247.254640, 1490302247.256929, +0.532471, +1.571594, +0.227051, +24.261475, -12.802124, +89.355469
1490302247.257195, 1490302247.259474, +0.532471, +1.571594, +0.227051, +27.526855, -26.123047, +89.355469
1490302247.259740, 1490302247.262031, +0.470398, +1.674866, +0.101990, +27.526855, -26.123047, +89.355469
1490302247.262298, 1490302247.264639, +0.470398, +1.674866, +0.101990, +29.342651, -42.022705, +90.988159
1490302247.264915, 1490302247.267324, +0.470398, +1.674866, +0.101990, +29.342651, -42.022705, +90.988159
1490302247.267596, 1490302247.270014, +0.470398, +1.674866, +0.101990, +28.381348, -56.289673, +92.224121
1490302247.270288, 1490302247.272699, +0.535767, +1.732727, +0.108765, +28.381348, -56.289673, +92.224121
1490302247.272973, 1490302247.275432, +0.535767, +1.732727, +0.108765, +28.106689, -67.871094, +96.740723
1490302247.275708, 1490302247.278124, +0.535767, +1.732727, +0.108765, +28.106689, -67.871094, +96.740723
1490302247.278398, 1490302247.280809, +0.535767, +1.686768, +0.238770, +29.586792, -77.514648, +102.508545
1490302247.281083, 1490302247.283496, +0.528625, +1.686768, +0.238770, +29.586792, -77.514648, +102.508545
1490302247.283771, 1490302247.286228, +0.528625, +1.686768, +0.238770, +31.860352, -85.250854, +108.154297
1490302247.286502, 1490302247.288916, +0.528625, +1.686768, +0.238770, +31.860352, -85.250854, +108.154297
1490302247.289190, 1490302247.291607, +0.279419, +1.582397, +0.242615, +34.835815, -91.705322, +111.434937
1490302247.291882, 1490302247.294295, +0.279419, +1.582397, +0.242615, +34.835815, -91.705322, +111.434937
1490302247.294570, 1490302247.296856, +0.279419, +1.582397, +0.242615, +38.085938, -95.489502, +113.098145
1490302247.297122, 1490302247.299413, +0.279419, +1.582397, +0.184753, +38.085938, -95.489502, +113.098145
1490302247.299679, 1490302247.301969, +0.009155, +1.468506, +0.184753, +41.870117, -94.177246, +113.891602
1490302247.302237, 1490302247.304543, +0.009155, +1.468506, +0.184753, +41.870117, -94.177246, +113.891602
1490302247.304819, 1490302247.307233, +0.009155, +1.468506, +0.184753, +41.870117, -87.966919, +114.349365
1490302247.307509, 1490302247.309922, +0.009155, +1.341248, +0.215332, +44.387817, -87.966919, +114.349365
1490302247.310197, 1490302247.312609, -0.150330, +1.341248, +0.215332, +44.387817, -76.248169, +116.226196
1490302247.312884, 1490302247.315308, -0.150330, +1.341248, +0.215332, +45.242310, -75.851440, +116.226196
1490302247.315582, 1490302247.317991, -0.150330, +1.341248, +0.215332, +45.242310, -75.851440, +117.599487
1490302247.318266, 1490302247.320682, -0.223572, +1.335205, +0.192078, +45.791626, -62.484741, +117.599487
1490302247.320954, 1490302247.323371, -0.223572, +1.335205, +0.192078, +45.791626, -62.484741, +117.828369
1490302247.323645, 1490302247.326073, -0.223572, +1.335205, +0.192078, +45.700073, -50.643921, +117.828369
1490302247.326345, 1490302247.328757, -0.223572, +1.335205, +0.148865, +45.700073, -50.643921, +113.922119
1490302247.329032, 1490302247.331440, -0.134766, +1.371094, +0.148865, +46.707153, -39.855957, +116.973877
1490302247.331715, 1490302247.334125, -0.134766, +1.371094, +0.148865, +46.707153, -39.855957, +116.973877
1490302247.334449, 1490302247.336861, -0.134766, +1.371094, +0.148865, +48.355103, -31.784058, +115.158081
1490302247.337136, 1490302247.339542, +0.007141, +1.339050, +0.106018, +48.355103, -31.784058, +115.158081
1490302247.339818, 1490302247.342235, +0.007141, +1.339050, +0.106018, +49.118042, -26.733398, +113.983154
1490302247.342512, 1490302247.344960, +0.007141, +1.339050, +0.106018, +49.118042, -26.733398, +113.983154
1490302247.345229, 1490302247.347521, +0.007141, +1.339050, +0.106018, +49.728394, -24.017334, +114.547729
1490302247.347897, 1490302247.350183, +0.104736, +1.252258, +0.107483, +49.728394, -24.017334, +114.547729
1490302247.350449, 1490302247.352733, +0.104736, +1.252258, +0.107483, +48.660278, -22.613525, +115.966797
1490302247.353000, 1490302247.355350, +0.104736, +1.252258, +0.107483, +48.660278, -22.613525, +115.966797
1490302247.355626, 1490302247.358037, +0.104736, +1.252258, +0.110046, +47.042847, -21.224976, +116.699219
1490302247.358312, 1490302247.360725, +0.116821, +1.161804, +0.110046, +47.042847, -21.224976, +116.699219
1490302247.360999, 1490302247.363420, +0.116821, +1.161804, +0.110046, +44.860840, -20.294189, +115.249634
1490302247.363694, 1490302247.366111, +0.116821, +1.161804, +0.110046, +44.860840, -20.294189, +115.249634
1490302247.366385, 1490302247.368803, +0.113525, +1.092224, +0.108215, +43.441772, -18.478394, +112.777710
1490302247.369077, 1490302247.371487, +0.113525, +1.092224, +0.108215, +43.441772, -18.478394, +112.777710
1490302247.371762, 1490302247.374174, +0.113525, +1.092224, +0.108215, +43.365479, -17.318726, +109.771729
1490302247.374458, 1490302247.376879, +0.113525, +1.092224, +0.108215, +43.365479, -17.318726, +109.771729
1490302247.377152, 1490302247.379573, +0.115906, +1.044617, +0.076721, +43.365479, -18.707275, +106.887817
1490302247.379848, 1490302247.382258, +0.115906, +1.044617, +0.076721, +43.045044, -18.707275, +106.887817
1490302247.382532, 1490302247.384958, +0.115906, +1.044617, +0.076721, +43.045044, -21.636963, +104.095459
1490302247.385233, 1490302247.387645, +0.115906, +0.957092, +0.039368, +42.526245, -21.636963, +104.095459
1490302247.387920, 1490302247.390334, +0.037170, +0.957092, +0.039368, +42.526245, -21.636963, +100.234985
1490302247.390608, 1490302247.393018, +0.037170, +0.957092, +0.039368, +42.083740, -23.269653, +100.234985
1490302247.393293, 1490302247.395655, +0.037170, +0.957092, +0.039368, +42.083740, -23.269653, +95.855713
1490302247.395922, 1490302247.398214, -0.061340, +0.836243, +0.014465, +41.824341, -21.499634, +95.855713
1490302247.398482, 1490302247.400767, -0.061340, +0.836243, +0.014465, +41.824341, -21.499634, +91.949463
1490302247.401033, 1490302247.403323, -0.061340, +0.836243, +0.014465, +41.625977, -16.983032, +92.147827
1490302247.403591, 1490302247.405972, -0.061340, +0.836243, +0.014465, +41.625977, -16.983032, +92.147827
1490302247.406247, 1490302247.408655, -0.130737, +0.750183, +0.004211, +39.810181, -11.062622, +89.279175
1490302247.408930, 1490302247.411343, -0.130737, +0.750183, +0.004211, +39.810181, -11.062622, +89.279175
1490302247.411617, 1490302247.414031, -0.130737, +0.750183, +0.004211, +36.819458, -2.868652, +88.226318
1490302247.414304, 1490302247.416726, -0.130737, +0.660461, +0.008423, +36.819458, -2.868652, +88.226318
1490302247.417000, 1490302247.419415, -0.169739, +0.660461, +0.008423, +33.706665, +7.049561, +85.556030
1490302247.419689, 1490302247.422102, -0.169739, +0.660461, +0.008423, +33.706665, +7.049561, +85.556030
1490302247.422374, 1490302247.424833, -0.169739, +0.660461, +0.008423, +31.280518, +15.441895, +80.596924
1490302247.425108, 1490302247.427522, -0.108398, +0.632812, -0.017578, +31.280518, +15.441895, +80.596924
1490302247.427798, 1490302247.430212, -0.108398, +0.632812, -0.017578, +29.998779, +21.316528, +75.103760
1490302247.430487, 1490302247.432904, -0.108398, +0.632812, -0.017578, +29.998779, +21.316528, +75.103760
1490302247.433181, 1490302247.435639, -0.108398, +0.632812, -0.017578, +29.129028, +27.450562, +71.350098
1490302247.435915, 1490302247.438325, -0.079834, +0.644348, -0.019775, +29.129028, +27.450562, +71.350098
1490302247.438600, 1490302247.441018, -0.079834, +0.644348, -0.019775, +26.611328, +32.226562, +66.696167
1490302247.441295, 1490302247.443707, -0.079834, +0.644348, -0.019775, +26.611328, +32.226562, +66.696167
1490302247.443981, 1490302247.446334, -0.090454, +0.645996, -0.024353, +25.146484, +37.307739, +60.485840
1490302247.446602, 1490302247.448891, -0.090454, +0.645996, -0.024353, +25.146484, +37.307739, +60.485840
1490302247.449259, 1490302247.451542, -0.090454, +0.645996, -0.024353, +25.146484, +44.128418, +56.045532
1490302247.451810, 1490302247.454101, -0.090454, +0.645996, -0.024353, +24.093628, +44.128418, +56.045532
1490302247.454368, 1490302247.456784, -0.140442, +0.630432, -0.007141, +24.093628, +51.940918, +52.444458
1490302247.457059, 1490302247.459472, -0.140442, +0.630432, -0.007141, +21.682739, +51.879883, +52.444458
1490302247.459747, 1490302247.462160, -0.140442, +0.630432, -0.007141, +21.682739, +51.879883, +46.920776
1490302247.462434, 1490302247.464856, -0.140442, +0.630432, -0.014282, +19.195557, +58.914185, +46.920776
1490302247.465129, 1490302247.467543, -0.140076, +0.590515, -0.014282, +19.195557, +58.914185, +40.283203
1490302247.467816, 1490302247.470229, -0.140076, +0.590515, -0.014282, +17.364502, +65.246582, +40.283203
1490302247.470505, 1490302247.472916, -0.140076, +0.590515, -0.014282, +17.364502, +65.246582, +32.470703
1490302247.473190, 1490302247.475675, -0.097229, +0.551147, -0.009705, +15.899658, +70.312500, +34.866333
1490302247.475951, 1490302247.478363, -0.097229, +0.551147, -0.009705, +15.899658, +70.312500, +30.960083
1490302247.478639, 1490302247.481053, -0.097229, +0.551147, -0.009705, +13.137817, +73.532104, +29.098511
1490302247.481328, 1490302247.483743, -0.097229, +0.551147, -0.009705, +13.137817, +73.532104, +29.098511
1490302247.484021, 1490302247.486443, -0.019958, +0.507935, +0.044678, +11.032104, +73.623657, +21.499634
1490302247.486717, 1490302247.489131, -0.019958, +0.507935, +0.044678, +11.032104, +73.623657, +21.499634
1490302247.489404, 1490302247.491820, -0.019958, +0.507935, +0.044678, +10.620117, +73.562622, +13.748169
1490302247.492093, 1490302247.494515, -0.019958, +0.443298, +0.063904, +10.620117, +73.562622, +13.748169
1490302247.494783, 1490302247.497077, +0.035522, +0.443298, +0.063904, +11.016846, +71.838379, +7.186890
1490302247.497341, 1490302247.499624, +0.035522, +0.443298, +0.063904, +11.016846, +71.838379, +7.186890
1490302247.499887, 1490302247.502176, +0.035522, +0.443298, +0.063904, +10.726929, +65.277100, +1.724243
1490302247.502440, 1490302247.504736, +0.047241, +0.397339, +0.055664, +10.726929, +65.277100, +1.724243
1490302247.505000, 1490302247.507282, +0.047241, +0.397339, +0.055664, +10.833740, +57.922363, -4.470825
1490302247.507548, 1490302247.509828, +0.047241, +0.397339, +0.055664, +10.833740, +57.922363, -4.470825
1490302247.510091, 1490302247.512378, +0.047241, +0.397339, +0.055664, +10.833740, +54.168701, -10.696411
1490302247.512646, 1490302247.514965, +0.002014, +0.372437, +0.062988, +11.611938, +54.168701, -10.696411
1490302247.515240, 1490302247.517652, +0.002014, +0.372437, +0.062988, +11.611938, +54.168701, -15.640259
1490302247.517928, 1490302247.520341, +0.002014, +0.372437, +0.062988, +11.169434, +53.756714, -15.640259
1490302247.520616, 1490302247.523027, +0.002014, +0.372437, +0.109863, +11.169434, +53.756714, -19.271851
1490302247.523301, 1490302247.525731, -0.026550, +0.369141, +0.094666, +9.872437, +54.504395, -19.271851
1490302247.526003, 1490302247.528417, -0.026550, +0.369141, +0.094666, +9.872437, +54.504395, -23.178101
1490302247.528691, 1490302247.531107, -0.026550, +0.369141, +0.094666, +7.827759, +55.923462, -22.262573
1490302247.531379, 1490302247.533788, -0.073425, +0.340210, +0.104919, +7.827759, +55.923462, -26.168823
1490302247.534061, 1490302247.536484, -0.089539, +0.340210, +0.104919, +4.409790, +58.090210, -25.512695
1490302247.536757, 1490302247.539173, -0.089539, +0.340210, +0.104919, +4.409790, +58.090210, -25.512695
1490302247.539446, 1490302247.541857, -0.089539, +0.340210, +0.104919, +1.510620, +62.133789, -29.968262
1490302247.542128, 1490302247.544551, -0.070312, +0.313660, +0.104370, +1.510620, +62.133789, -29.968262
1490302247.544825, 1490302247.547243, -0.070312, +0.313660, +0.104370, -0.473022, +66.543579, -35.293579
1490302247.547516, 1490302247.549931, -0.070312, +0.313660, +0.104370, -0.473022, +66.543579, -35.293579
1490302247.550204, 1490302247.552612, -0.070312, +0.313660, +0.090637, -1.373291, +70.343018, -41.442871
1490302247.552993, 1490302247.555394, +0.064453, +0.318420, +0.090637, -1.373291, +70.343018, -41.442871
1490302247.555660, 1490302247.557948, +0.064453, +0.318420, +0.090637, -2.136230, +72.875977, -45.196533
1490302247.558211, 1490302247.560498, +0.064453, +0.318420, +0.090637, -2.136230, +72.875977, -45.196533
1490302247.560762, 1490302247.563046, +0.181458, +0.346252, +0.112427, -4.318237, +72.708130, -49.331665
1490302247.563312, 1490302247.565685, +0.181458, +0.346252, +0.112427, -4.318237, +72.708130, -49.331665
1490302247.565957, 1490302247.568376, +0.181458, +0.346252, +0.112427, -5.111694, +70.327759, -55.206299
1490302247.568648, 1490302247.571060, +0.181458, +0.346252, +0.112427, -5.111694, +70.327759, -55.206299
1490302247.571330, 1490302247.573741, +0.213501, +0.336182, +0.102722, -5.157471, +67.428589, -61.569214
1490302247.574012, 1490302247.576443, +0.213501, +0.336182, +0.102722, -5.157471, +67.428589, -61.569214
1490302247.576716, 1490302247.579127, +0.213501, +0.336182, +0.102722, -5.157471, +63.995361, -66.787720
1490302247.579399, 1490302247.581811, +0.213501, +0.336182, +0.125244, -5.706787, +63.995361, -66.787720
1490302247.582083, 1490302247.584502, +0.206543, +0.329956, +0.125244, -5.706787, +60.882568, -70.663452
1490302247.584772, 1490302247.587183, +0.206543, +0.329956, +0.125244, -7.919312, +60.882568, -70.663452
1490302247.587453, 1490302247.589868, +0.206543, +0.329956, +0.125244, -7.919312, +56.976318, -76.644897
1490302247.590138, 1490302247.592547, +0.163696, +0.366577, +0.129089, -9.521484, +57.830811, -76.644897
1490302247.592818, 1490302247.595240, +0.163696, +0.366577, +0.129089, -9.521484, +57.830811, -81.588745
1490302247.595513, 1490302247.597928, +0.163696, +0.366577, +0.129089, -10.238647, +55.694580, -81.588745
1490302247.598201, 1490302247.600612, +0.163696, +0.366577, +0.129089, -10.238647, +55.694580, -84.609985
1490302247.600886, 1490302247.603301, +0.169006, +0.386536, +0.155090, -12.481689, +52.703857, -84.609985
1490302247.603575, 1490302247.605978, +0.169006, +0.386536, +0.155090, -12.481689, +52.703857, -88.516235
1490302247.606244, 1490302247.608527, +0.169006, +0.386536, +0.155090, -14.022827, +47.973633, -89.157104
1490302247.608793, 1490302247.611084, +0.169006, +0.433411, +0.166077, -14.022827, +47.973633, -89.157104
1490302247.611349, 1490302247.613638, +0.214050, +0.435242, +0.166077, -13.565063, +41.839600, -94.314575
1490302247.613903, 1490302247.616309, +0.214050, +0.435242, +0.166077, -13.565063, +41.839600, -94.314575
1490302247.616584, 1490302247.619000, +0.214050, +0.435242, +0.166077, -12.985229, +36.026001, -97.503662
1490302247.619273, 1490302247.621688, +0.235474, +0.449890, +0.171570, -12.985229, +36.026001, -97.503662
1490302247.621961, 1490302247.624377, +0.235474, +0.449890, +0.171570, -13.916016, +30.548096, -98.739624
1490302247.624687, 1490302247.627099, +0.235474, +0.449890, +0.171570, -13.916016, +30.548096, -98.739624
1490302247.627373, 1490302247.629784, +0.235474, +0.449890, +0.171570, -15.136719, +25.070190, -102.157593
1490302247.630058, 1490302247.632469, +0.240601, +0.484314, +0.139526, -15.136719, +25.070190, -102.157593
1490302247.632744, 1490302247.635173, +0.240601, +0.484314, +0.139526, -14.587402, +20.706177, -105.621338
1490302247.635447, 1490302247.637856, +0.240601, +0.484314, +0.139526, -14.587402, +20.706177, -105.621338
1490302247.638129, 1490302247.640543, +0.240601, +0.509216, +0.120117, -14.434814, +18.981934, -106.658936
1490302247.640817, 1490302247.643232, +0.233093, +0.509216, +0.120117, -14.434814, +18.981934, -106.658936
1490302247.643505, 1490302247.645935, +0.233093, +0.509216, +0.120117, -16.189575, +19.317627, -106.658936
1490302247.646210, 1490302247.648621, +0.233093, +0.509216, +0.120117, -16.189575, +19.317627, -106.658936
1490302247.648896, 1490302247.651304, +0.239136, +0.556274, +0.073242, -17.166138, +20.263672, -107.910156
1490302247.651579, 1490302247.653997, +0.239136, +0.556274, +0.073242, -17.166138, +20.263672, -107.910156
1490302247.654271, 1490302247.656583, +0.239136, +0.556274, +0.073242, -17.166138, +22.445679, -110.458374
1490302247.656967, 1490302247.659257, +0.239136, +0.556274, +0.026367, -16.372681, +22.445679, -110.458374
1490302247.659524, 1490302247.661813, +0.289490, +0.573669, +0.029480, -16.372681, +26.351929, -111.312866
1490302247.662081, 1490302247.664367, +0.289490, +0.573669, +0.029480, -14.801025, +25.207520, -111.312866
1490302247.664700, 1490302247.667114, +0.289490, +0.573669, +0.029480, -14.801025, +25.207520, -111.160278
1490302247.667389, 1490302247.669804, +0.289490, +0.570007, +0.024902, -15.289307, +26.229858, -111.160278
1490302247.670080, 1490302247.672491, +0.388367, +0.570007, +0.024902, -15.289307, +26.229858, -111.160278
1490302247.672766, 1490302247.675228, +0.388367, +0.570007, +0.024902, -14.389038, +24.963379, -113.143921
1490302247.675502, 1490302247.677909, +0.388367, +0.570007, +0.024902, -14.389038, +24.963379, -117.050171
1490302247.678184, 1490302247.680595, +0.428284, +0.566895, +0.004944, -12.252808, +23.361206, -115.249634
1490302247.680870, 1490302247.683286, +0.428284, +0.566895, +0.004944, -12.252808, +23.361206, -115.249634
1490302247.683561, 1490302247.685975, +0.428284, +0.566895, +0.004944, -9.048462, +22.155762, -116.546631
1490302247.686249, 1490302247.688667, +0.428284, +0.566895, +0.008972, -9.048462, +22.155762, -116.546631
1490302247.688938, 1490302247.691347, +0.395325, +0.582825, +0.008972, -7.827759, +21.408081, -116.271973
1490302247.691622, 1490302247.694031, +0.395325, +0.582825, +0.008972, -7.827759, +21.408081, -116.271973
1490302247.694304, 1490302247.696616, +0.395325, +0.582825, +0.008972, -7.217407, +21.286011, -117.218018
1490302247.696883, 1490302247.699168, +0.343323, +0.630432, -0.002197, -7.217407, +21.286011, -117.218018
1490302247.699433, 1490302247.701720, +0.343323, +0.630432, -0.002197, -5.310059, +22.415161, -118.103027
1490302247.701985, 1490302247.704279, +0.343323, +0.630432, -0.002197, -5.310059, +22.415161, -118.103027
1490302247.704552, 1490302247.706962, +0.343323, +0.630432, -0.002197, -3.173828, +25.680542, -117.126465
1490302247.707236, 1490302247.709651, +0.284363, +0.677490, -0.014832, -3.173828, +25.680542, -117.126465
1490302247.709924, 1490302247.712335, +0.284363, +0.677490, -0.014832, -1.724243, +30.120850, -114.776611
1490302247.712607, 1490302247.715030, +0.284363, +0.677490, -0.014832, -1.724243, +30.120850, -114.776611
1490302247.715302, 1490302247.717717, +0.284363, +0.677490, -0.014832, -1.724243, +34.561157, -112.548828
1490302247.717988, 1490302247.720398, +0.230530, +0.735168, -0.024719, -1.266479, +34.561157, -112.548828
1490302247.720670, 1490302247.723085, +0.230530, +0.735168, -0.024719, -1.266479, +39.108276, -111.648560
1490302247.723357, 1490302247.725773, +0.230530, +0.735168, -0.024719, -0.595093, +39.108276, -111.648560
1490302247.726046, 1490302247.728460, +0.232910, +0.767212, -0.054199, -0.595093, +43.014526, -110.504150
1490302247.728732, 1490302247.731149, +0.232910, +0.767212, -0.054199, +1.205444, +43.792725, -110.504150
1490302247.731421, 1490302247.733835, +0.232910, +0.767212, -0.054199, +1.205444, +43.792725, -108.215332
1490302247.734106, 1490302247.736424, +0.232910, +0.767212, -0.054199, +3.662109, +47.485352, -108.215332
1490302247.736689, 1490302247.738981, +0.240051, +0.759705, -0.075623, +3.662109, +47.485352, -108.215332
1490302247.739246, 1490302247.741535, +0.240051, +0.759705, -0.075623, +5.126953, +50.582886, -105.941772
1490302247.741799, 1490302247.744087, +0.240051, +0.759705, -0.075623, +5.126953, +50.582886, -105.941772
1490302247.744351, 1490302247.746648, +0.240051, +0.759705, -0.075623, +5.508423, +54.534912, -103.622437
1490302247.746915, 1490302247.749200, +0.251770, +0.765930, -0.076721, +5.508423, +54.534912, -103.622437
1490302247.749467, 1490302247.751753, +0.251770, +0.765930, -0.076721, +7.049561, +60.195923, -102.233887
1490302247.752017, 1490302247.754305, +0.251770, +0.765930, -0.076721, +7.049561, +60.195923, -102.233887
1490302247.754587, 1490302247.756997, +0.251770, +0.765930, -0.090271, +9.246826, +66.925049, -99.609375
1490302247.757271, 1490302247.759683, +0.328125, +0.792847, -0.090271, +9.246826, +66.925049, -99.609375
1490302247.760061, 1490302247.762474, +0.328125, +0.792847, -0.090271, +11.611938, +73.577881, -95.932007
1490302247.762750, 1490302247.765170, +0.328125, +0.792847, -0.090271, +11.611938, +73.577881, -95.932007
1490302247.765447, 1490302247.767859, +0.447693, +0.791565, -0.067932, +12.573242, +78.552246, -91.842651
1490302247.768133, 1490302247.770541, +0.447693, +0.791565, -0.067932, +12.573242, +78.552246, -91.842651
1490302247.770814, 1490302247.773234, +0.447693, +0.791565, -0.067932, +14.495850, +80.490112, -89.416504
1490302247.773509, 1490302247.775930, +0.447693, +0.791565, -0.067932, +14.495850, +80.490112, -89.416504
1490302247.776205, 1490302247.778613, +0.509399, +0.788269, -0.048523, +18.402100, +80.459595, -87.585449
1490302247.778888, 1490302247.781302, +0.509399, +0.788269, -0.048523, +16.555786, +80.459595, -87.585449
1490302247.781578, 1490302247.783985, +0.509399, +0.788269, -0.048523, +16.555786, +79.940796, -85.830688
1490302247.784259, 1490302247.786575, +0.556274, +0.817200, -0.009155, +18.936157, +79.940796, -85.830688
1490302247.786842, 1490302247.789132, +0.536865, +0.817200, -0.009155, +18.936157, +79.940796, -84.152222
1490302247.789400, 1490302247.791685, +0.536865, +0.817200, -0.009155, +21.957397, +77.468872, -84.152222
1490302247.791953, 1490302247.794248, +0.536865, +0.817200, -0.009155, +21.957397, +77.468872, -84.152222
1490302247.794521, 1490302247.796929, +0.547852, +0.834595, +0.071960, +25.009155, +74.951172, -80.841064
1490302247.797204, 1490302247.799614, +0.547852, +0.834595, +0.071960, +25.009155, +74.951172, -80.841064
1490302247.799889, 1490302247.802304, +0.547852, +0.834595, +0.071960, +26.245117, +74.478149, -76.416016
1490302247.802578, 1490302247.805050, +0.547852, +0.834595, +0.071960, +26.245117, +74.478149, -76.416016
1490302247.805325, 1490302247.807735, +0.522217, +0.875061, +0.190247, +25.588989, +75.256348, -71.533203
1490302247.808010, 1490302247.810429, +0.522217, +0.875061, +0.190247, +25.588989, +75.256348, -71.533203
1490302247.810703, 1490302247.813115, +0.522217, +0.875061, +0.190247, +24.826050, +75.988770, -67.993164
1490302247.813389, 1490302247.815841, +0.522217, +0.942627, +0.256531, +24.826050, +75.988770, -67.993164
1490302247.816115, 1490302247.818527, +0.542175, +0.942627, +0.256531, +24.856567, +76.431274, -65.429688
1490302247.818800, 1490302247.821209, +0.542175, +0.942627, +0.256531, +24.856567, +76.431274, -65.429688
1490302247.821482, 1490302247.823897, +0.542175, +0.942627, +0.256531, +26.443481, +74.676514, -61.477661
1490302247.824171, 1490302247.826508, +0.577881, +0.954163, +0.261292, +26.443481, +74.676514, -61.477661
1490302247.826775, 1490302247.829066, +0.577881, +0.954163, +0.261292, +27.755737, +69.015503, -56.625366
1490302247.829333, 1490302247.831624, +0.577881, +0.954163, +0.261292, +27.755737, +69.015503, -56.625366
1490302247.831892, 1490302247.834179, +0.577881, +0.954163, +0.261292, +28.671265, +60.913086, -53.115845
1490302247.834462, 1490302247.836863, +0.515625, +0.891174, +0.219543, +28.671265, +60.913086, -53.115845
1490302247.837136, 1490302247.839536, +0.515625, +0.891174, +0.219543, +28.671265, +53.482056, -51.239014
1490302247.839808, 1490302247.842205, +0.515625, +0.891174, +0.219543, +29.998779, +53.482056, -51.239014
1490302247.842479, 1490302247.844896, +0.515625, +0.878906, +0.215515, +29.998779, +49.575806, -49.560547
1490302247.845168, 1490302247.847619, +0.439087, +0.878906, +0.215515, +30.807495, +48.767090, -49.560547
1490302247.847894, 1490302247.850306, +0.439087, +0.878906, +0.215515, +30.807495, +44.860840, -45.944214
1490302247.850579, 1490302247.852983, +0.439087, +0.878906, +0.215515, +31.204224, +45.684814, -45.944214
1490302247.853257, 1490302247.855682, +0.372253, +0.894653, +0.206909, +31.204224, +45.684814, -42.373657
1490302247.855953, 1490302247.858527, +0.372253, +0.894653, +0.206909, +31.188965, +42.526245, -42.373657
1490302247.858797, 1490302247.861172, +0.372253, +0.894653, +0.206909, +31.188965, +42.526245, -39.978027
1490302247.861560, 1490302247.863933, +0.372253, +0.894653, +0.216980, +30.776978, +39.184570, -39.978027
1490302247.864205, 1490302247.866592, +0.311829, +0.906921, +0.216980, +30.776978, +39.184570, -38.925171
1490302247.866857, 1490302247.869178, +0.311829, +0.906921, +0.216980, +30.838013, +36.911011, -38.925171
1490302247.869444, 1490302247.871729, +0.311829, +0.906921, +0.216980, +30.838013, +36.911011, -38.925171
1490302247.871994, 1490302247.874288, +0.294617, +0.893005, +0.209839, +31.188965, +36.529541, -37.780762
1490302247.874551, 1490302247.876838, +0.294617, +0.893005, +0.209839, +31.188965, +36.529541, -37.780762
1490302247.877105, 1490302247.879395, +0.294617, +0.893005, +0.209839, +31.234741, +36.346436, -35.537720
1490302247.879662, 1490302247.881941, +0.294617, +0.893005, +0.209839, +31.234741, +36.346436, -35.537720
1490302247.882207, 1490302247.884517, +0.307800, +0.836060, +0.188416, +29.449463, +33.645630, -33.279419
1490302247.884792, 1490302247.887205, +0.307800, +0.836060, +0.188416, +29.449463, +33.645630, -33.279419
1490302247.887477, 1490302247.889886, +0.307800, +0.836060, +0.188416, +27.481079, +29.861450, -32.440186
1490302247.890160, 1490302247.892570, +0.307800, +0.836060, +0.188416, +27.481079, +29.861450, -32.440186
1490302247.892843, 1490302247.895267, +0.281616, +0.760620, +0.172668, +27.282715, +26.214600, -33.599854
1490302247.895540, 1490302247.897945, +0.281616, +0.760620, +0.172668, +27.282715, +26.214600, -33.599854
1490302247.898218, 1490302247.900630, +0.281616, +0.760620, +0.172668, +31.188965, +23.162842, -33.950806
1490302247.900903, 1490302247.903316, +0.187866, +0.702393, +0.155457, +28.045654, +23.162842, -33.950806
1490302247.903589, 1490302247.906042, +0.199219, +0.702393, +0.155457, +24.139404, +20.721436, -33.584595
1490302247.906317, 1490302247.908733, +0.199219, +0.702393, +0.155457, +26.672363, +20.721436, -33.584595
1490302247.909006, 1490302247.911415, +0.199219, +0.702393, +0.155457, +26.672363, +18.768311, -34.118652
1490302247.911687, 1490302247.914105, +0.103455, +0.649109, +0.121948, +25.360107, +18.768311, -34.118652
1490302247.914381, 1490302247.916839, +0.103455, +0.649109, +0.121948, +25.360107, +18.768311, -36.071777
1490302247.917113, 1490302247.919528, +0.103455, +0.649109, +0.121948, +24.612427, +17.974854, -36.071777
1490302247.919802, 1490302247.922212, +0.103455, +0.649109, +0.074341, +24.612427, +17.974854, -37.658691
1490302247.922486, 1490302247.924888, +0.019043, +0.583191, +0.074341, +24.719238, +17.791748, -37.658691
1490302247.925155, 1490302247.927443, +0.019043, +0.583191, +0.074341, +24.719238, +17.791748, -37.658691
1490302247.927708, 1490302247.929998, +0.019043, +0.583191, +0.074341, +24.810791, +19.927979, -38.101196
1490302247.930265, 1490302247.932547, -0.041931, +0.520020, +0.054932, +24.810791, +19.927979, -38.101196
1490302247.932815, 1490302247.935146, -0.041931, +0.520020, +0.054932, +23.651123, +22.598267, -37.765503
1490302247.935420, 1490302247.937832, -0.041931, +0.520020, +0.054932, +23.651123, +22.598267, -37.765503
1490302247.938106, 1490302247.940518, -0.041931, +0.520020, +0.054932, +21.911621, +24.597168, -38.253784
1490302247.940792, 1490302247.943204, -0.095032, +0.463806, +0.036621, +21.911621, +24.597168, -38.253784
1490302247.943478, 1490302247.945901, -0.095032, +0.463806, +0.036621, +21.179199, +26.733398, -40.573120
1490302247.946173, 1490302247.948579, -0.095032, +0.463806, +0.036621, +21.179199, +26.733398, -40.573120
1490302247.948854, 1490302247.951273, -0.095032, +0.463806, +0.546936, +18.875122, +29.968262, -44.342041
1490302247.951548, 1490302247.953958, -0.099976, +0.487976, +0.546936, +18.875122, +29.968262, -44.342041
1490302247.954232, 1490302247.956649, -0.099976, +0.487976, +0.546936, -0.793457, +51.864624, -49.728394
1490302247.956920, 1490302247.959333, -0.099976, +0.487976, +0.546936, -0.793457, +51.864624, -49.728394
1490302247.959603, 1490302247.962010, +1.351318, +1.332642, +2.764526, -50.094604, +82.916260, -48.721313
1490302247.962282, 1490302247.964707, +1.351318, +1.332642, +2.764526, -50.094604, +82.916260, -48.721313
1490302247.965084, 1490302247.967491, +1.351318, +1.332642, +2.764526, -76.690674, +76.370239, -21.896362
1490302247.967762, 1490302247.970171, +1.351318, +1.332642, +2.764526, -76.690674, +76.370239, -21.896362
1490302247.970441, 1490302247.972860, +3.920837, +5.111206, +0.858948, +11.978149, +57.281494, +28.656006
1490302247.973132, 1490302247.975497, +3.920837, +5.111206, +0.858948, +11.978149, +57.281494, +28.656006
1490302247.975763, 1490302247.978048, +3.920837, +5.111206, +0.858948, +105.728149, +30.120850, +65.277100
1490302247.978315, 1490302247.980605, +3.920837, +4.408081, -0.639587, +108.917236, +30.120850, +65.277100
1490302247.980870, 1490302247.983157, -0.543640, +4.447083, -0.639587, +108.917236, +30.120850, +61.828613
1490302247.983422, 1490302247.985762, -0.543640, +4.447083, -0.639587, +84.884644, -11.062622, +61.828613
1490302247.986028, 1490302247.988310, -0.543640, +4.447083, -0.639587, +84.884644, -11.062622, +54.016113
1490302247.988577, 1490302247.990857, -0.965515, -0.023254, -1.100098, +30.731201, -17.883301, +53.237915
1490302247.991124, 1490302247.993408, -0.969177, -0.023254, -1.100098, +30.731201, -17.883301, +53.237915
1490302247.993677, 1490302247.996105, -0.969177, -0.023254, -1.100098, -12.191772, -25.924683, +47.058105
1490302247.996379, 1490302247.998788, -0.969177, -0.023254, -1.100098, -12.191772, -25.924683, +47.058105
1490302247.999060, 1490302248.001481, -0.957092, -0.757690, -0.606628, -15.670776, -30.593872, +33.676147
1490302248.001755, 1490302248.004164, -0.957092, -0.757690, -0.606628, -15.670776, -30.593872, +33.676147
1490302248.004446, 1490302248.006864, -0.957092, -0.757690, -0.606628, -4.119873, -45.181274, +18.310547
1490302248.007135, 1490302248.009547, -0.957092, -0.757690, -0.131287, -4.119873, -45.181274, +18.310547
1490302248.009817, 1490302248.012227, -0.684448, +0.429016, -0.131287, +2.014160, -41.900635, +12.359619
1490302248.012498, 1490302248.014925, -0.684448, +0.429016, -0.131287, +2.014160, -41.900635, +12.359619
1490302248.015196, 1490302248.017602, -0.684448, +0.429016, -0.131287, +6.515503, -18.295288, +12.405396
1490302248.017873, 1490302248.020288, -0.442566, +1.196228, +0.339478, +6.515503, -18.295288, +12.405396
1490302248.020558, 1490302248.022973, -0.442566, +1.196228, +0.339478, +4.333496, +9.414673, +14.877319
1490302248.023240, 1490302248.025606, -0.442566, +1.196228, +0.339478, +4.333496, +9.414673, +14.877319
1490302248.025867, 1490302248.028155, -0.442566, +1.196228, +0.339478, +0.076294, +25.314331, +18.218994
1490302248.028419, 1490302248.030704, -0.004944, +1.019714, +0.579712, +0.076294, +25.314331, +18.218994
1490302248.030968, 1490302248.033256, -0.004944, +1.019714, +0.579712, +0.076294, +33.126831, +21.957397
1490302248.033521, 1490302248.035915, -0.004944, +1.019714, +0.579712, -4.272461, +31.265259, +21.957397
1490302248.036186, 1490302248.038601, -0.004944, +1.019714, +0.439087, -4.272461, +31.265259, +24.322510
1490302248.038872, 1490302248.041278, +0.217712, +0.624939, +0.424805, -10.162354, +34.790039, +24.322510
1490302248.041552, 1490302248.043960, +0.217712, +0.624939, +0.424805, -10.162354, +34.790039, +23.895264
1490302248.044233, 1490302248.046657, +0.217712, +0.624939, +0.424805, -11.718750, +31.616211, +23.895264
1490302248.046931, 1490302248.049345, +0.311462, +0.837524, +0.216797, -11.718750, +31.616211, +19.989014
1490302248.049619, 1490302248.052028, +0.313843, +0.837524, +0.216797, -6.713867, +21.331787, +22.232056
1490302248.052298, 1490302248.054725, +0.313843, +0.837524, +0.216797, -6.713867, +21.331787, +22.232056
1490302248.054994, 1490302248.057412, +0.313843, +0.837524, +0.216797, -1.663208, +11.062622, +20.111084
1490302248.057683, 1490302248.060091, +0.181824, +0.980530, +0.035889, -1.663208, +11.062622, +20.111084
1490302248.060361, 1490302248.062771, +0.181824, +0.980530, +0.035889, -1.358032, +5.371094, +19.256592
1490302248.063042, 1490302248.065473, +0.181824, +0.980530, +0.035889, -1.358032, +5.371094, +19.256592
1490302248.065739, 1490302248.068151, +0.181824, +0.980530, +0.002380, -3.906250, +2.960205, +18.875122
1490302248.068526, 1490302248.070939, +0.069946, +1.065308, +0.002380, -3.906250, +2.960205, +18.875122
1490302248.071208, 1490302248.073618, +0.069946, +1.065308, +0.002380, -6.591797, +0.686646, +18.447876
1490302248.073886, 1490302248.076215, +0.069946, +1.065308, +0.002380, -6.591797, +0.686646, +18.447876
1490302248.076478, 1490302248.078765, -0.082764, +1.171692, +0.048340, -6.866455, -1.312256, +17.791748
1490302248.079027, 1490302248.081317, -0.082764, +1.171692, +0.048340, -6.866455, -1.312256, +17.791748
1490302248.081578, 1490302248.083857, -0.082764, +1.171692, +0.048340, -6.179810, -1.800537, +15.991211
1490302248.084119, 1490302248.086527, -0.082764, +1.171692, +0.048340, -6.179810, -1.800537, +15.991211
1490302248.086796, 1490302248.089204, -0.165161, +1.082703, +0.107300, -6.500244, +0.152588, +16.098022
1490302248.089472, 1490302248.091883, -0.165161, +1.082703, +0.107300, -6.500244, +0.152588, +16.098022
1490302248.092152, 1490302248.094567, -0.165161, +1.082703, +0.107300, -10.406494, +2.502441, +16.448975
1490302248.094839, 1490302248.097247, -0.165161, +1.082703, +0.156189, -7.949829, +2.502441, +16.448975
1490302248.097515, 1490302248.099929, -0.034241, +0.956726, +0.156189, -7.949829, +3.540039, +15.579224
1490302248.100198, 1490302248.102605, -0.034241, +0.956726, +0.156189, -8.850098, +3.540039, +15.579224
1490302248.102874, 1490302248.105293, -0.034241, +0.956726, +0.156189, -8.850098, +3.540039, +13.854980
1490302248.105563, 1490302248.107977, +0.126526, +0.877258, +0.152344, -8.056641, +3.311157, +13.854980
1490302248.108243, 1490302248.110658, +0.126526, +0.877258, +0.152344, -8.056641, +3.311157, +13.076782
1490302248.110926, 1490302248.113342, +0.126526, +0.877258, +0.152344, -6.439209, +3.067017, +13.076782
1490302248.113610, 1490302248.116028, +0.126526, +0.877258, +0.152344, -6.439209, +3.067017, +12.725830
1490302248.116297, 1490302248.118705, +0.175415, +0.846497, +0.181091, -6.149292, +2.517700, +12.725830
1490302248.118973, 1490302248.121387, +0.175415, +0.846497, +0.181091, -6.149292, +2.517700, +12.725830
1490302248.121655, 1490302248.124069, +0.175415, +0.846497, +0.181091, -6.561279, +1.770020, +12.039185
1490302248.124338, 1490302248.126644, +0.175415, +0.938782, +0.239319, -6.561279, +1.770020, +12.039185
1490302248.126906, 1490302248.129199, +0.073975, +0.938782, +0.239319, -4.104614, +0.747681, +10.604858
1490302248.129462, 1490302248.131753, +0.073975, +0.938782, +0.239319, -4.104614, +0.747681, +10.604858
1490302248.132014, 1490302248.134305, +0.073975, +0.938782, +0.239319, -0.915527, -0.274658, +9.017944
1490302248.134564, 1490302248.136846, -0.077820, +1.014221, +0.252502, -0.915527, -0.274658, +9.017944
1490302248.137103, 1490302248.139384, -0.077820, +1.014221, +0.252502, +0.686646, -1.541138, +8.819580
1490302248.139642, 1490302248.141929, -0.077820, +1.014221, +0.252502, +0.686646, -1.541138, +8.819580
1490302248.142186, 1490302248.144495, -0.077820, +1.014221, +0.252502, +0.686646, -3.982544, +7.965088
1490302248.144763, 1490302248.147168, -0.098328, +1.010742, +0.215698, +2.716064, -3.982544, +7.965088
1490302248.147432, 1490302248.149848, -0.098328, +1.010742, +0.215698, +2.716064, -3.768921, +6.515503
1490302248.150110, 1490302248.152518, -0.098328, +1.010742, +0.215698, +4.394531, -3.768921, +6.515503
1490302248.152781, 1490302248.155250, -0.098328, +1.010742, +0.215698, +4.394531, -3.768921, +5.722046
1490302248.155515, 1490302248.157926, +0.070862, +1.138000, +0.156555, +6.790161, -1.373291, +5.722046
1490302248.158188, 1490302248.160595, +0.070862, +1.138000, +0.156555, +6.790161, -1.373291, +5.950928
1490302248.160857, 1490302248.163271, +0.070862, +1.138000, +0.156555, +8.666992, +0.457764, +5.950928
1490302248.163538, 1490302248.165958, +0.117737, +1.096802, +0.097412, +8.666992, +0.457764, +5.645752
1490302248.166223, 1490302248.168637, +0.109863, +1.096802, +0.097412, +9.216309, +0.854492, +5.645752
1490302248.168903, 1490302248.171316, +0.109863, +1.096802, +0.097412, +9.216309, +0.854492, +1.739502
1490302248.171689, 1490302248.174097, +0.109863, +1.096802, +0.097412, +8.911133, +0.427246, +3.204346
1490302248.174362, 1490302248.176658, +0.085510, +0.998108, +0.121399, +8.911133, +0.427246, +3.204346
1490302248.176918, 1490302248.179205, +0.085510, +0.998108, +0.121399, +8.773804, +1.037598, +0.137329
1490302248.179465, 1490302248.181754, +0.085510, +0.998108, +0.121399, +8.773804, +1.037598, +0.137329
1490302248.182014, 1490302248.184307, +0.085510, +0.998108, +0.121399, +10.314941, +3.051758, -1.022339
1490302248.184576, 1490302248.186984, -0.013184, +1.050842, +0.208374, +10.314941, +3.051758, -1.022339
1490302248.187252, 1490302248.189664, -0.013184, +1.050842, +0.208374, +14.343262, +4.272461, -0.747681
1490302248.189934, 1490302248.192349, -0.013184, +1.050842, +0.208374, +14.343262, +4.272461, -0.747681
1490302248.192617, 1490302248.195037, -0.013184, +0.982727, +0.331238, +18.768311, +3.341675, -2.166748
1490302248.195306, 1490302248.197722, -0.009521, +0.982727, +0.331238, +18.768311, +3.341675, -2.166748
1490302248.197992, 1490302248.200405, -0.009521, +0.982727, +0.331238, +20.187378, +2.807617, -3.295898
1490302248.200675, 1490302248.203085, -0.009521, +0.982727, +0.331238, +20.187378, +2.807617, -3.295898
1490302248.203355, 1490302248.205772, +0.013184, +0.953796, +0.249756, +20.767212, +5.065918, -2.975464
1490302248.206040, 1490302248.208448, +0.013184, +0.953796, +0.249756, +20.767212, +5.065918, -2.975464
1490302248.208716, 1490302248.211127, +0.013184, +0.953796, +0.249756, +20.187378, +6.240845, -2.410889
1490302248.211395, 1490302248.213804, +0.013184, +0.953796, +0.132385, +20.187378, +6.240845, -2.410889
1490302248.214072, 1490302248.216395, +0.078369, +0.986023, +0.132385, +16.281128, +6.454468, -4.150391
1490302248.216655, 1490302248.218948, +0.078369, +0.986023, +0.132385, +18.676758, +6.454468, -4.150391
1490302248.219210, 1490302248.221494, +0.078369, +0.986023, +0.132385, +18.676758, +6.454468, -7.629395
1490302248.221757, 1490302248.224041, +0.078369, +1.021912, +0.099792, +18.585205, +5.737305, -7.629395
1490302248.224304, 1490302248.226726, +0.093567, +1.021912, +0.099792, +18.585205, +5.737305, -11.535645
1490302248.226997, 1490302248.229410, +0.093567, +1.021912, +0.099792, +20.172119, +5.828857, -10.147095
1490302248.229681, 1490302248.232089, +0.093567, +1.021912, +0.099792, +20.172119, +5.828857, -10.147095
1490302248.232360, 1490302248.234787, +0.035706, +1.011658, +0.171387, +19.805908, +5.966187, -10.971069
1490302248.235058, 1490302248.237473, +0.035706, +1.011658, +0.171387, +19.805908, +5.966187, -10.971069
1490302248.237744, 1490302248.240157, +0.035706, +1.011658, +0.171387, +18.890381, +6.149292, -11.825562
1490302248.240430, 1490302248.242843, +0.035706, +1.011658, +0.171387, +18.890381, +6.149292, -11.825562
1490302248.243113, 1490302248.245533, -0.039551, +1.018433, +0.148315, +17.868042, +6.195068, -13.778687
1490302248.245803, 1490302248.248216, -0.039551, +1.018433, +0.148315, +17.868042, +6.195068, -13.778687
1490302248.248487, 1490302248.250896, -0.039551, +1.018433, +0.148315, +18.447876, +7.415771, -14.633179
1490302248.251165, 1490302248.253576, -0.039551, +1.022278, +0.151611, +18.447876, +7.415771, -14.633179
1490302248.253847, 1490302248.256271, -0.002197, +1.022278, +0.151611, +17.242432, +8.270264, -14.007568
1490302248.256543, 1490302248.258953, -0.002197, +1.022278, +0.151611, +17.242432, +8.270264, -14.007568
1490302248.259224, 1490302248.261638, -0.002197, +1.022278, +0.151611, +14.358521, +8.728027, -14.923096
1490302248.261910, 1490302248.264320, +0.012451, +1.011658, +0.147766, +14.358521, +8.728027, -14.923096
1490302248.264637, 1490302248.266929, +0.012451, +1.011658, +0.147766, +13.351440, +9.399414, -17.532349
1490302248.267192, 1490302248.269484, +0.012451, +1.011658, +0.147766, +13.351440, +9.399414, -17.532349
1490302248.269746, 1490302248.272034, +0.012451, +1.011658, +0.100891, +13.092041, +10.375977, -18.997192
1490302248.272302, 1490302248.274631, +0.031860, +0.997559, +0.135681, +13.092041, +10.375977, -18.997192
1490302248.274999, 1490302248.277285, +0.031860, +0.997559, +0.135681, +13.092041, +10.803223, -18.768311
1490302248.277553, 1490302248.279840, +0.031860, +0.997559, +0.135681, +11.245728, +10.803223, -18.768311
1490302248.280106, 1490302248.282397, +0.031860, +0.991516, +0.093018, +11.245728, +10.803223, -18.783569
1490302248.282663, 1490302248.284982, -0.074707, +0.991516, +0.093018, +8.056641, +10.528564, -18.783569
1490302248.285254, 1490302248.287666, -0.074707, +0.991516, +0.093018, +8.056641, +10.528564, -22.689819
1490302248.287937, 1490302248.290349, -0.074707, +0.991516, +0.093018, +5.172729, +10.864258, -20.370483
1490302248.290620, 1490302248.293032, +0.033142, +1.031067, +0.093750, +5.172729, +10.864258, -20.370483
1490302248.293305, 1490302248.295727, +0.033142, +1.031067, +0.093750, +4.135132, +11.886597, -22.872925
1490302248.295999, 1490302248.298408, +0.033142, +1.031067, +0.093750, +4.135132, +11.886597, -22.872925
1490302248.298680, 1490302248.301088, +0.033142, +1.031067, +0.093750, +4.074097, +11.978149, -25.009155
1490302248.301359, 1490302248.303776, +0.069946, +1.009827, +0.125977, +4.074097, +11.978149, -25.009155
1490302248.304047, 1490302248.306467, +0.069946, +1.009827, +0.125977, +2.563477, +10.040283, -25.588989
1490302248.306739, 1490302248.309148, +0.069946, +1.009827, +0.125977, +2.563477, +10.040283, -25.588989
1490302248.309419, 1490302248.311834, +0.023071, +0.981812, +0.130554, -0.213623, +7.369995, -27.069092
1490302248.312103, 1490302248.314527, +0.001282, +0.981812, +0.130554, -0.213623, +7.369995, -27.069092
1490302248.314798, 1490302248.317211, +0.001282, +0.981812, +0.130554, -0.808716, +5.111694, -31.265259
1490302248.317481, 1490302248.319897, +0.001282, +0.981812, +0.130554, -0.808716, +5.111694, -31.265259
1490302248.320169, 1490302248.322576, +0.074158, +1.021912, +0.150513, +0.244141, +4.394531, -33.645630
1490302248.322846, 1490302248.325233, +0.074158, +1.021912, +0.150513, +0.244141, +4.394531, -33.645630
1490302248.325495, 1490302248.327782, +0.074158, +1.021912, +0.150513, -1.266479, +3.082275, -34.988403
1490302248.328043, 1490302248.330325, +0.074158, +1.021912, +0.150513, -1.266479, +3.082275, -34.988403
1490302248.330585, 1490302248.332873, +0.097412, +1.003967, +0.154358, -1.266479, +0.625610, -37.933350
1490302248.333134, 1490302248.335491, +0.097412, +1.003967, +0.154358, -2.258301, +0.625610, -37.933350
1490302248.335762, 1490302248.338172, +0.097412, +1.003967, +0.154358, -2.258301, -3.280640, -41.427612
1490302248.338439, 1490302248.340853, +0.097412, +0.977966, +0.182922, -1.373291, -1.937866, -41.427612
1490302248.341122, 1490302248.343528, +0.071777, +0.977966, +0.182922, -1.373291, -1.937866, -44.296265
1490302248.343795, 1490302248.346255, +0.071777, +0.977966, +0.182922, -0.885010, -2.487183, -44.296265
1490302248.346524, 1490302248.348931, +0.071777, +0.977966, +0.182922, -0.885010, -2.487183, -46.401978
1490302248.349199, 1490302248.351609, +0.026367, +1.032715, +0.190063, -0.167847, -4.318237, -46.401978
1490302248.351878, 1490302248.354294, +0.026367, +1.032715, +0.190063, -0.167847, -4.318237, -50.308228
1490302248.354563, 1490302248.356978, +0.026367, +1.032715, +0.190063, +1.373291, -8.590698, -50.033569
1490302248.357247, 1490302248.359660, +0.026367, +1.032715, +0.143188, +1.373291, -8.590698, -50.033569
1490302248.359928, 1490302248.362347, +0.016479, +1.035645, +0.181824, +4.684448, -14.282227, -53.405762
1490302248.362616, 1490302248.365046, +0.016479, +1.035645, +0.181824, +4.684448, -14.282227, -53.405762
1490302248.365316, 1490302248.367729, +0.016479, +1.035645, +0.181824, +6.027222, -17.425537, -55.252075
1490302248.368001, 1490302248.370414, +0.016296, +0.962402, +0.208557, +6.027222, -17.425537, -55.252075
1490302248.370685, 1490302248.373097, +0.016296, +0.962402, +0.208557, +5.630493, -17.944336, -54.977417
1490302248.373367, 1490302248.375734, +0.016296, +0.962402, +0.208557, +5.630493, -17.944336, -54.977417
1490302248.375998, 1490302248.378285, +0.016296, +0.962402, +0.208557, +3.921509, -16.967773, -54.763794
1490302248.378548, 1490302248.380837, -0.014832, +0.987488, +0.200500, +3.921509, -16.967773, -54.763794
1490302248.381206, 1490302248.383501, -0.014832, +0.987488, +0.200500, +3.082275, -16.571045, -56.091309
1490302248.383766, 1490302248.386059, -0.014832, +0.987488, +0.200500, +3.082275, -16.571045, -56.091309
1490302248.386323, 1490302248.388613, -0.014832, +0.987488, +0.200500, +3.387451, -15.594482, -56.365967
1490302248.388876, 1490302248.391158, -0.034424, +0.984741, +0.193909, +3.387451, -15.594482, -56.365967
1490302248.391420, 1490302248.393706, -0.034424, +0.984741, +0.193909, +3.387451, -12.969971, -55.358887
1490302248.393968, 1490302248.396367, -0.034424, +0.984741, +0.193909, +3.890991, -12.969971, -55.358887
1490302248.396641, 1490302248.399054, -0.034424, +0.937866, +0.206909, +3.890991, -12.969971, -53.649902
1490302248.399325, 1490302248.401733, -0.085510, +0.973755, +0.206909, +3.753662, -12.771606, -53.649902
1490302248.402004, 1490302248.404457, -0.085510, +0.973755, +0.206909, +3.753662, -12.771606, -51.986694
1490302248.404730, 1490302248.407141, -0.085510, +0.973755, +0.206909, +2.685547, -13.381958, -51.986694
1490302248.407411, 1490302248.409820, -0.065552, +0.992249, +0.200867, +2.685547, -13.381958, -50.857544
1490302248.410092, 1490302248.412497, -0.065552, +0.992249, +0.200867, +2.517700, -14.587402, -50.857544
1490302248.412770, 1490302248.415229, -0.065552, +0.992249, +0.200867, +2.517700, -14.587402, -46.951294
1490302248.415502, 1490302248.417919, -0.065552, +0.992249, +0.153992, +3.997803, -16.174316, -49.819946
1490302248.418190, 1490302248.420602, -0.068665, +1.007812, +0.183472, +3.997803, -16.174316, -49.819946
1490302248.420872, 1490302248.423281, -0.068665, +1.007812, +0.183472, +5.142212, -17.257690, -49.255371
1490302248.423554, 1490302248.425973, -0.068665, +1.007812, +0.183472, +5.142212, -17.257690, -49.255371
1490302248.426244, 1490302248.428651, -0.115540, +0.994080, +0.178345, +6.256104, -17.684937, -49.057007
1490302248.428924, 1490302248.431340, -0.120667, +0.994080, +0.178345, +6.256104, -17.684937, -49.057007
1490302248.431612, 1490302248.434023, -0.120667, +0.994080, +0.178345, +7.080078, -16.601562, -47.332764
1490302248.434295, 1490302248.436603, -0.120667, +0.994080, +0.178345, +7.080078, -16.601562, -47.332764
1490302248.436867, 1490302248.439160, -0.180542, +0.996460, +0.231445, +8.224487, -14.389038, -44.692993
1490302248.439423, 1490302248.441707, -0.180542, +0.996460, +0.231445, +8.224487, -14.389038, -44.692993
1490302248.441970, 1490302248.444256, -0.180542, +0.996460, +0.231445, +9.521484, -12.512207, -42.831421
1490302248.444527, 1490302248.446926, -0.180542, +0.996460, +0.231445, +9.521484, -12.512207, -42.831421
1490302248.447196, 1490302248.449590, -0.174500, +0.967896, +0.255798, +9.704590, -11.077881, -41.275024
1490302248.449862, 1490302248.452256, -0.174500, +0.967896, +0.255798, +9.704590, -11.077881, -41.275024
1490302248.452527, 1490302248.454932, -0.174500, +0.967896, +0.255798, +9.704590, -8.926392, -39.947510
1490302248.455199, 1490302248.457589, -0.174500, +0.949585, +0.223755, +10.070801, -8.926392, -39.947510
1490302248.457859, 1490302248.460252, -0.190979, +0.949585, +0.223755, +10.070801, -6.210327, -38.497925
1490302248.460523, 1490302248.462912, -0.190979, +0.949585, +0.223755, +11.169434, -6.210327, -38.497925
1490302248.463181, 1490302248.465623, -0.190979, +0.949585, +0.223755, +11.169434, -2.304077, -36.148071
1490302248.465894, 1490302248.468294, -0.264404, +0.972473, +0.197571, +11.413574, -3.356934, -36.148071
1490302248.468565, 1490302248.470959, -0.264404, +0.972473, +0.197571, +11.413574, -3.356934, -34.286499
1490302248.471228, 1490302248.473626, -0.264404, +0.972473, +0.197571, +11.184692, -1.800537, -34.286499
1490302248.473895, 1490302248.476217, -0.264404, +0.972473, +0.197571, +11.184692, -1.800537, -34.286499
1490302248.476498, 1490302248.480705, -0.211304, +0.973572, +0.207458, +11.123657, -0.671387, -33.035278
1490302248.480983, 1490302248.483278, -0.211304, +0.973572, +0.207458, +11.199951, +0.457764, -32.958984
1490302248.483544, 1490302248.486159, -0.211304, +0.973572, +0.160583, +11.199951, +0.457764, -32.958984
1490302248.486554, 1490302248.488840, -0.145752, +0.984009, +0.169006, +11.352539, +1.174927, -31.616211
1490302248.489104, 1490302248.491395, -0.145752, +0.984009, +0.169006, +11.352539, +1.174927, -31.616211
1490302248.491659, 1490302248.493943, -0.145752, +0.984009, +0.169006, +10.742188, +1.556396, -29.708862
1490302248.494208, 1490302248.496649, -0.145752, +0.984558, +0.161133, +10.742188, +1.556396, -29.708862
1490302248.496915, 1490302248.499200, -0.172119, +0.984558, +0.161133, +10.742188, +1.525879, -27.404785
1490302248.499463, 1490302248.501750, -0.172119, +0.984558, +0.161133, +9.277344, +1.525879, -27.404785
1490302248.502010, 1490302248.504324, -0.172119, +0.984558, +0.161133, +9.277344, -2.380371, -26.443481
1490302248.504678, 1490302248.507072, -0.230164, +0.987854, +0.125793, +8.697510, -0.930786, -26.443481
1490302248.507342, 1490302248.509740, -0.230164, +0.987854, +0.125793, +8.697510, -0.930786, -26.885986
1490302248.510009, 1490302248.512414, -0.230164, +0.987854, +0.125793, +8.544922, -3.494263, -26.885986
