timestamp_before, timestamp_after, accel_x, accel_y, accel_z, gyro_x, gyro_y, gyro_z
1490302132.473697, 1490302132.476353, -0.194275, +1.044800, +0.148682, +9.796143, -0.289917, -4.791260
1490302132.476698, 1490302132.478983, -0.194275, +0.994812, +0.152710, +10.147095, -1.007080, -5.905151
1490302132.479246, 1490302132.481527, -0.186951, +0.994812, +0.152710, +10.147095, -1.007080, -5.905151
1490302132.481788, 1490302132.484073, -0.186951, +0.994812, +0.152710, +10.787964, -0.228882, -6.317139
1490302132.484335, 1490302132.486731, -0.186951, +0.994812, +0.152710, +10.787964, -0.228882, -6.317139
1490302132.486992, 1490302132.489274, -0.186951, +0.971924, +0.151062, +10.391235, +0.076294, -6.179810
1490302132.489538, 1490302132.491826, -0.175964, +0.971924, +0.151062, +10.391235, +0.076294, -6.179810
1490302132.492088, 1490302132.494369, -0.175964, +0.971924, +0.151062, +9.994507, +0.015259, -5.523682
1490302132.494874, 1490302132.497163, -0.175964, +0.971924, +0.151062, +9.994507, +0.015259, -5.523682
1490302132.497421, 1490302132.499705, -0.187866, +0.992065, +0.161499, +9.994507, +0.122070, -5.859375
1490302132.499964, 1490302132.502247, -0.187866, +0.992065, +0.161499, +10.391235, +0.122070, -5.859375
1490302132.502509, 1490302132.504859, -0.187866, +0.992065, +0.161499, +10.391235, +0.122070, -5.615234
1490302132.505121, 1490302132.507407, -0.187866, +0.992065, +0.161499, +10.192871, -0.030518, -5.615234
1490302132.507668, 1490302132.509959, -0.183838, +0.989502, +0.160217, +10.192871, -0.030518, -5.615234
1490302132.510220, 1490302132.512507, -0.183838, +0.989502, +0.160217, +10.833740, +0.061035, -5.874634
1490302132.512770, 1490302132.515124, -0.183838, +0.989502, +0.160217, +10.833740, +0.061035, -5.874634
1490302132.515393, 1490302132.517812, -0.183838, +0.989502, +0.160217, +10.177612, -0.076294, -5.737305
1490302132.518082, 1490302132.520501, -0.189148, +0.993713, +0.160767, +10.177612, -0.076294, -5.737305
1490302132.520770, 1490302132.523183, -0.189148, +0.993713, +0.160767, +10.787964, -0.015259, -5.706787
1490302132.523453, 1490302132.525813, -0.189148, +0.993713, +0.160767, +10.787964, -0.015259, -5.706787
1490302132.526075, 1490302132.528370, -0.142273, +0.993164, +0.163147, +10.681152, -0.305176, -5.584717
1490302132.528631, 1490302132.530921, -0.187134, +0.993164, +0.163147, +10.681152, -0.305176, -5.584717
1490302132.531183, 1490302132.533473, -0.187134, +0.993164, +0.163147, +10.833740, -0.335693, -4.913330
1490302132.533735, 1490302132.536113, -0.187134, +0.993164, +0.163147, +10.833740, -0.335693, -4.913330
1490302132.536375, 1490302132.538668, -0.193909, +0.993530, +0.153076, +10.253906, -0.396729, -5.340576
1490302132.538929, 1490302132.541215, -0.193909, +0.993530, +0.153076, +10.253906, -0.396729, -5.340576
1490302132.541476, 1490302132.543769, -0.193909, +0.993530, +0.153076, +10.253906, +3.509521, -5.035400
1490302132.544028, 1490302132.546478, -0.193909, +0.993530, +0.153076, +10.589600, +0.427246, -5.035400
1490302132.546747, 1490302132.549159, -0.193542, +0.991150, +0.157654, +10.589600, +0.427246, -4.699707
1490302132.549427, 1490302132.551908, -0.193542, +0.991150, +0.157654, +9.979248, +0.198364, -4.699707
1490302132.552175, 1490302132.554626, -0.193542, +0.991150, +0.157654, +9.979248, +0.198364, -4.882812
1490302132.554886, 1490302132.557174, -0.193542, +0.991150, +0.156189, +10.528564, +0.625610, -4.882812
1490302132.557436, 1490302132.559736, -0.191528, +0.992981, +0.156189, +10.528564, +0.625610, -4.882812
1490302132.559997, 1490302132.562284, -0.191528, +0.992981, +0.156189, +10.513306, +0.411987, -4.867554
1490302132.562546, 1490302132.564887, -0.191528, +0.992981, +0.156189, +10.513306, +0.411987, -4.867554
1490302132.565157, 1490302132.567576, -0.180542, +0.995178, +0.163330, +11.108398, +0.549316, -4.776001
1490302132.567844, 1490302132.570256, -0.180542, +0.995178, +0.163330, +11.108398, +0.549316, -4.776001
1490302132.570523, 1490302132.572939, -0.180542, +0.995178, +0.163330, +10.314941, -0.061035, -4.272461
1490302132.573210, 1490302132.575633, -0.180542, +0.995178, +0.163330, +10.314941, -0.061035, -4.272461
1490302132.576062, 1490302132.578474, -0.190613, +0.997375, +0.154541, +11.230469, +0.106812, -4.959106
1490302132.578743, 1490302132.581162, -0.190613, +0.997375, +0.154541, +11.230469, +0.106812, -4.959106
1490302132.581431, 1490302132.583836, -0.190613, +0.997375, +0.154541, +10.345459, +0.030518, -4.684448
1490302132.584105, 1490302132.586431, -0.190613, +0.997375, +0.166077, +10.345459, +0.030518, -4.684448
1490302132.586695, 1490302132.589094, -0.184021, +0.995178, +0.166077, +11.047363, -0.076294, -5.325317
1490302132.589358, 1490302132.591648, -0.184021, +0.995178, +0.166077, +11.047363, -0.076294, -5.325317
1490302132.591911, 1490302132.594204, -0.184021, +0.995178, +0.166077, +10.620117, -0.061035, -4.211426
1490302132.594553, 1490302132.596877, -0.188049, +0.990234, +0.152161, +10.620117, -0.061035, -4.211426
1490302132.597239, 1490302132.599546, -0.188049, +0.990234, +0.152161, +10.620117, -0.091553, -4.669189
1490302132.599808, 1490302132.602106, -0.188049, +0.990234, +0.152161, +10.696411, -0.091553, -4.669189
1490302132.602368, 1490302132.604778, -0.188049, +0.990234, +0.152161, +10.696411, +3.814697, -3.921509
1490302132.605038, 1490302132.607399, -0.181458, +0.996460, +0.158386, +10.635376, +0.030518, -3.921509
1490302132.607675, 1490302132.609976, -0.181458, +0.996460, +0.158386, +10.635376, +0.030518, -4.455566
1490302132.610240, 1490302132.612526, -0.181458, +0.996460, +0.158386, +11.596680, +0.106812, -4.455566
1490302132.612788, 1490302132.615104, -0.181458, +0.996460, +0.158386, +11.596680, +0.106812, -4.455566
1490302132.615372, 1490302132.617868, -0.184570, +0.990784, +0.149414, +10.818481, -0.045776, -3.311157
1490302132.618139, 1490302132.620540, -0.184570, +0.990784, +0.149414, +10.818481, -0.045776, -3.311157
1490302132.620810, 1490302132.623214, -0.184570, +0.990784, +0.149414, +11.459351, -0.457764, -3.479004
1490302132.623483, 1490302132.625881, -0.184570, +0.985840, +0.152161, +11.459351, -0.457764, -3.479004
1490302132.626148, 1490302132.628643, -0.186951, +0.985840, +0.152161, +10.513306, -0.198364, -2.670288
1490302132.628913, 1490302132.631318, -0.186951, +0.985840, +0.152161, +10.513306, -0.198364, -2.670288
1490302132.631588, 1490302132.633984, -0.186951, +0.985840, +0.152161, +11.199951, -0.427246, -3.051758
1490302132.634251, 1490302132.636647, -0.197937, +0.988953, +0.151978, +11.199951, -0.427246, -3.051758
1490302132.636913, 1490302132.639389, -0.197937, +0.988953, +0.151978, +10.894775, -0.167847, -2.197266
1490302132.639657, 1490302132.642060, -0.197937, +0.988953, +0.151978, +10.894775, -0.167847, -2.197266
1490302132.642329, 1490302132.644742, -0.197937, +0.988953, +0.169006, +10.986328, -0.305176, -3.097534
1490302132.645009, 1490302132.647385, -0.204346, +0.994446, +0.169006, +10.986328, -0.305176, -3.097534
1490302132.647652, 1490302132.650150, -0.204346, +0.994446, +0.169006, +10.833740, -0.030518, -1.800537
1490302132.650412, 1490302132.652703, -0.204346, +0.994446, +0.169006, +10.833740, -0.030518, -1.800537
1490302132.652964, 1490302132.655380, -0.232727, +0.992432, +0.157837, +10.559082, +0.076294, -1.953125
1490302132.655642, 1490302132.657934, -0.232727, +0.992432, +0.157837, +10.559082, +0.076294, -1.953125
1490302132.658195, 1490302132.660591, -0.232727, +0.992432, +0.157837, +10.559082, +1.510620, -1.495361
1490302132.660853, 1490302132.663147, -0.232727, +0.992432, +0.157837, +10.223389, +1.510620, -1.495361
1490302132.664159, 1490302132.666566, -0.190979, +1.011658, +0.146484, +10.162354, +1.800537, -2.243042
1490302132.666835, 1490302132.669249, -0.190979, +1.011658, +0.146484, +10.162354, +1.800537, -2.243042
1490302132.669517, 1490302132.671927, -0.190979, +1.011658, +0.146484, +10.421753, +2.334595, -2.456665
1490302132.672196, 1490302132.674660, -0.144104, +1.006165, +0.138977, +10.421753, +2.334595, -2.456665
1490302132.674928, 1490302132.677337, -0.158020, +1.006165, +0.138977, +9.246826, +1.281738, -2.899170
1490302132.677601, 1490302132.680013, -0.158020, +1.006165, +0.138977, +9.246826, +1.281738, -2.899170
1490302132.680278, 1490302132.682687, -0.158020, +1.006165, +0.138977, +9.246826, +1.586914, -3.677368
1490302132.683073, 1490302132.685503, -0.163696, +0.984009, +0.148315, +10.116577, +1.586914, -3.677368
1490302132.685770, 1490302132.688184, -0.163696, +0.984009, +0.148315, +10.116577, +1.434326, -3.143311
1490302132.688452, 1490302132.690862, -0.163696, +0.984009, +0.148315, +9.017944, +1.434326, -3.143311
1490302132.691124, 1490302132.693537, -0.163696, +0.984009, +0.142273, +9.017944, +1.434326, -4.074097
1490302132.693802, 1490302132.696166, -0.171204, +0.983826, +0.142273, +9.475708, +1.113892, -4.074097
1490302132.696425, 1490302132.698710, -0.171204, +0.983826, +0.142273, +9.475708, +1.113892, -3.601074
1490302132.698966, 1490302132.701255, -0.171204, +0.983826, +0.142273, +9.582520, +1.220703, -3.601074
1490302132.701512, 1490302132.703798, -0.169922, +0.992798, +0.151428, +9.582520, +1.220703, -3.601074
1490302132.704055, 1490302132.706493, -0.169922, +0.992798, +0.151428, +9.216309, +0.869751, -4.516602
1490302132.706751, 1490302132.709041, -0.169922, +0.992798, +0.151428, +9.216309, +0.869751, -4.516602
1490302132.709298, 1490302132.711582, -0.169922, +0.992798, +0.151428, +9.521484, +0.915527, -3.982544
1490302132.711839, 1490302132.714131, -0.181091, +0.991699, +0.151978, +9.521484, +0.915527, -3.982544
1490302132.714388, 1490302132.716970, -0.181091, +0.991699, +0.151978, +9.674072, +0.854492, -4.821777
1490302132.717236, 1490302132.719651, -0.181091, +0.991699, +0.151978, +9.674072, +0.854492, -4.821777
1490302132.719916, 1490302132.722327, -0.181091, +0.991699, +0.151978, +9.460449, +1.403809, -4.486084
1490302132.722594, 1490302132.725056, -0.188965, +0.993164, +0.158569, +9.460449, +1.403809, -4.486084
1490302132.725320, 1490302132.727735, -0.188965, +0.993164, +0.158569, +9.460449, +1.480103, -5.081177
1490302132.728000, 1490302132.730417, -0.188965, +0.993164, +0.158569, +9.460449, +1.480103, -5.081177
1490302132.730681, 1490302132.733094, -0.142090, +0.994080, +0.152161, +9.582520, +1.800537, -4.791260
1490302132.733360, 1490302132.735788, -0.179077, +0.994080, +0.152161, +9.582520, +1.800537, -4.791260
1490302132.736053, 1490302132.738471, -0.179077, +0.994080, +0.152161, +9.521484, +1.464844, -5.050659
1490302132.738737, 1490302132.741151, -0.179077, +0.994080, +0.152161, +9.521484, +1.464844, -5.050659
1490302132.741415, 1490302132.743827, -0.180176, +0.995911, +0.166260, +9.323120, +1.434326, -4.455566
1490302132.744091, 1490302132.746414, -0.180176, +0.995911, +0.166260, +9.323120, +1.434326, -4.455566
1490302132.746671, 1490302132.748961, -0.180176, +0.995911, +0.166260, +9.323120, +0.625610, -4.989624
1490302132.749219, 1490302132.751509, -0.180176, +0.995911, +0.166260, +8.956909, +0.625610, -4.989624
1490302132.751766, 1490302132.754056, -0.183655, +0.993896, +0.158936, +8.956909, +0.625610, -4.226685
1490302132.754312, 1490302132.756608, -0.183655, +0.993896, +0.158936, +9.353638, +0.808716, -4.226685
1490302132.756865, 1490302132.759153, -0.183655, +0.993896, +0.158936, +9.353638, +0.808716, -4.226685
1490302132.759410, 1490302132.761696, -0.183655, +0.993896, +0.161682, +9.216309, +0.427246, -4.287720
1490302132.761954, 1490302132.764241, -0.189148, +0.991150, +0.161682, +9.216309, +0.427246, -4.287720
1490302132.764514, 1490302132.766933, -0.189148, +0.991150, +0.161682, +10.040283, +0.671387, -4.501343
1490302132.767203, 1490302132.769613, -0.189148, +0.991150, +0.161682, +10.040283, +0.671387, -4.501343
1490302132.769882, 1490302132.772359, -0.190796, +0.992615, +0.153442, +9.109497, +0.442505, -4.196167
1490302132.772624, 1490302132.775053, -0.190796, +0.992615, +0.153442, +9.109497, +0.442505, -4.196167
1490302132.775318, 1490302132.777741, -0.190796, +0.992615, +0.153442, +9.887695, +0.869751, -4.776001
1490302132.778005, 1490302132.780418, -0.190796, +0.992615, +0.153442, +9.887695, +0.869751, -4.776001
1490302132.780682, 1490302132.783100, -0.174133, +1.000671, +0.150879, +9.292603, +0.839233, -4.440308
1490302132.783365, 1490302132.785783, -0.174133, +1.000671, +0.150879, +9.292603, +0.839233, -4.440308
1490302132.786164, 1490302132.788582, -0.174133, +1.000671, +0.150879, +9.338379, +0.564575, -4.806519
1490302132.788847, 1490302132.791261, -0.174133, +0.995544, +0.146301, +9.338379, +0.564575, -4.806519
1490302132.791525, 1490302132.793941, -0.169922, +0.995544, +0.146301, +8.850098, +0.534058, -4.577637
1490302132.794205, 1490302132.796544, -0.169922, +0.995544, +0.146301, +8.850098, +0.534058, -4.577637
1490302132.796801, 1490302132.799099, -0.169922, +0.995544, +0.146301, +8.850098, +0.762939, -4.592896
1490302132.799356, 1490302132.801645, -0.179077, +0.992981, +0.158752, +9.155273, +0.762939, -4.592896
1490302132.801903, 1490302132.804190, -0.179077, +0.992981, +0.158752, +9.155273, +0.762939, -5.157471
1490302132.804461, 1490302132.806753, -0.179077, +0.992981, +0.158752, +9.384155, +0.335693, -5.157471
1490302132.807011, 1490302132.809297, -0.179077, +0.992981, +0.158752, +9.384155, +0.335693, -5.157471
1490302132.809555, 1490302132.811844, -0.177979, +0.993347, +0.156555, +9.490967, +0.503540, -4.669189
1490302132.812101, 1490302132.814542, -0.177979, +0.993347, +0.156555, +9.490967, +0.503540, -4.669189
1490302132.814800, 1490302132.817090, -0.177979, +0.993347, +0.156555, +9.063721, +0.167847, -5.142212
1490302132.817347, 1490302132.819640, -0.177979, +0.993347, +0.156555, +9.063721, +0.167847, -5.142212
1490302132.819898, 1490302132.822182, -0.174683, +0.996460, +0.162048, +9.368896, +0.595093, -4.867554
1490302132.822441, 1490302132.824841, -0.174683, +0.996460, +0.162048, +9.368896, +0.595093, -4.867554
1490302132.825107, 1490302132.827526, -0.174683, +0.996460, +0.162048, +8.468628, -0.106812, -5.233765
1490302132.827793, 1490302132.830200, -0.174683, +0.995361, +0.156189, +8.468628, -0.106812, -5.233765
1490302132.830465, 1490302132.832877, -0.182007, +0.995361, +0.156189, +9.506226, +0.335693, -5.783081
1490302132.833142, 1490302132.835504, -0.182007, +0.995361, +0.156189, +9.506226, +0.335693, -5.783081
1490302132.835763, 1490302132.838050, -0.182007, +0.995361, +0.156189, +8.804321, +0.274658, -4.745483
1490302132.838307, 1490302132.840600, -0.190796, +0.999023, +0.156372, +8.804321, +0.274658, -4.745483
1490302132.840857, 1490302132.843142, -0.190796, +0.999023, +0.156372, +8.804321, -3.631592, -5.294800
1490302132.843400, 1490302132.845772, -0.190796, +0.999023, +0.156372, +9.384155, -0.198364, -5.294800
1490302132.846038, 1490302132.848439, -0.190796, +0.999023, +0.156372, +9.384155, -0.198364, -4.287720
1490302132.848703, 1490302132.851100, -0.187134, +0.999390, +0.158752, +9.033203, +0.350952, -4.287720
1490302132.851364, 1490302132.853763, -0.187134, +0.999390, +0.158752, +9.033203, +0.350952, -4.287720
1490302132.854025, 1490302132.856416, -0.187134, +0.999390, +0.158752, +9.201050, -0.015259, -4.684448
1490302132.856680, 1490302132.859051, -0.187134, +0.999390, +0.155090, +9.201050, -0.015259, -4.684448
1490302132.859313, 1490302132.861693, -0.184937, +0.990967, +0.155090, +9.460449, +0.076294, -3.906250
1490302132.861956, 1490302132.864329, -0.184937, +0.990967, +0.155090, +9.460449, +0.076294, -3.906250
1490302132.864704, 1490302132.867116, -0.184937, +0.990967, +0.155090, +9.277344, -0.244141, -4.638672
1490302132.867380, 1490302132.869785, -0.188782, +0.995728, +0.153076, +9.277344, -0.244141, -4.638672
1490302132.870048, 1490302132.872446, -0.188782, +0.995728, +0.153076, +9.338379, +0.320435, -3.479004
1490302132.872711, 1490302132.875187, -0.188782, +0.995728, +0.153076, +9.338379, +0.320435, -3.479004
1490302132.875454, 1490302132.877866, -0.188782, +0.995728, +0.153076, +8.636475, +0.030518, -3.509521
1490302132.878131, 1490302132.880529, -0.183472, +0.988586, +0.157471, +8.636475, +0.030518, -3.509521
1490302132.880794, 1490302132.883197, -0.183472, +0.988586, +0.157471, +8.804321, +0.335693, -3.585815
1490302132.883461, 1490302132.885955, -0.183472, +0.988586, +0.157471, +8.804321, +0.335693, -3.585815
1490302132.886213, 1490302132.888502, -0.183472, +0.985657, +0.149048, +8.468628, +0.106812, -2.838135
1490302132.888761, 1490302132.891054, -0.197388, +0.985657, +0.149048, +8.468628, +0.106812, -2.838135
1490302132.891426, 1490302132.893713, -0.197388, +0.985657, +0.149048, +9.185791, +0.640869, -3.234863
1490302132.893974, 1490302132.896359, -0.197388, +0.985657, +0.149048, +9.185791, +0.640869, -3.234863
1490302132.896628, 1490302132.899050, -0.190796, +0.990601, +0.154907, +8.087158, +0.762939, -2.426147
1490302132.899316, 1490302132.901728, -0.190796, +0.990601, +0.154907, +8.087158, +0.762939, -2.426147
1490302132.901993, 1490302132.904448, -0.190796, +0.990601, +0.154907, +8.087158, +0.839233, -3.036499
1490302132.904714, 1490302132.907122, -0.190796, +0.990601, +0.154907, +8.712769, +0.839233, -3.036499
1490302132.907387, 1490302132.909798, -0.177979, +0.992432, +0.148682, +8.712769, +1.098633, -2.563477
1490302132.910064, 1490302132.912478, -0.177979, +0.992432, +0.148682, +8.682251, +1.098633, -2.563477
1490302132.912744, 1490302132.915159, -0.177979, +0.992432, +0.148682, +8.682251, +1.098633, -2.731323
1490302132.915425, 1490302132.917838, -0.177979, +0.996094, +0.151611, +8.590698, +0.854492, -2.731323
1490302132.918102, 1490302132.920520, -0.176880, +0.996094, +0.151611, +8.590698, +0.854492, -2.288818
1490302132.920784, 1490302132.923197, -0.176880, +0.996094, +0.151611, +8.773804, +1.693726, -2.288818
1490302132.923462, 1490302132.925887, -0.176880, +0.996094, +0.151611, +8.773804, +1.693726, -2.044678
1490302132.926152, 1490302132.928567, -0.178894, +0.998108, +0.159668, +7.507324, +1.342773, -2.044678
1490302132.928832, 1490302132.931245, -0.178894, +0.998108, +0.159668, +7.507324, +1.342773, -2.044678
1490302132.931510, 1490302132.933927, -0.178894, +0.998108, +0.159668, +8.666992, +1.388550, -2.532959
1490302132.934193, 1490302132.936538, -0.178894, +0.998108, +0.159668, +8.666992, +1.388550, -2.532959
1490302132.936796, 1490302132.939079, -0.175049, +0.990601, +0.163696, +8.270264, +1.541138, -1.770020
1490302132.939335, 1490302132.941627, -0.175049, +0.990601, +0.163696, +8.270264, +1.541138, -1.770020
1490302132.941884, 1490302132.944169, -0.175049, +0.990601, +0.163696, +8.865356, +1.449585, -2.197266
1490302132.944458, 1490302132.946872, -0.175049, +0.990601, +0.166260, +8.865356, +1.449585, -2.197266
1490302132.947137, 1490302132.949547, -0.177246, +0.988403, +0.166260, +8.300781, +1.327515, -1.602173
1490302132.949813, 1490302132.952225, -0.177246, +0.988403, +0.166260, +8.300781, +1.327515, -1.602173
1490302132.952491, 1490302132.954921, -0.177246, +0.988403, +0.166260, +8.987427, +1.419067, -1.495361
1490302132.955186, 1490302132.957599, -0.177795, +0.989136, +0.170105, +8.987427, +1.419067, -1.495361
1490302132.957862, 1490302132.960276, -0.177795, +0.989136, +0.170105, +8.926392, +1.037598, -1.174927
1490302132.960541, 1490302132.962955, -0.177795, +0.989136, +0.170105, +8.926392, +1.037598, -1.174927
1490302132.963219, 1490302132.965643, -0.177795, +0.989136, +0.170105, +9.521484, +1.174927, -1.312256
1490302132.965909, 1490302132.968324, -0.187500, +0.988403, +0.158936, +9.521484, +1.174927, -1.312256
1490302132.968589, 1490302132.971000, -0.187500, +0.988403, +0.158936, +9.521484, +1.434326, -0.427246
1490302132.971266, 1490302132.973678, -0.187500, +0.988403, +0.158936, +8.255005, +1.434326, -0.427246
1490302132.973944, 1490302132.976279, -0.187500, +0.989685, +0.154541, +8.255005, +1.632690, -0.656128
1490302132.976538, 1490302132.978828, -0.184753, +0.989685, +0.154541, +8.834839, +1.632690, -0.656128
1490302132.979085, 1490302132.981372, -0.184753, +0.989685, +0.154541, +8.834839, +1.632690, -0.106812
1490302132.981630, 1490302132.983921, -0.184753, +0.989685, +0.154541, +8.544922, +2.166748, -0.106812
1490302132.984179, 1490302132.986505, -0.189697, +0.995728, +0.140625, +8.544922, +2.166748, -0.106812
1490302132.986764, 1490302132.989048, -0.189697, +0.995728, +0.140625, +8.758545, +2.182007, -0.534058
1490302132.989307, 1490302132.991594, -0.189697, +0.995728, +0.140625, +8.758545, +2.182007, -0.534058
1490302132.991853, 1490302132.994136, -0.189697, +0.995728, +0.140625, +8.255005, +2.624512, +1.098633
1490302132.994435, 1490302132.996859, -0.185669, +0.994812, +0.150330, +8.255005, +2.624512, +1.098633
1490302132.997231, 1490302132.999647, -0.185669, +0.994812, +0.150330, +8.453369, +3.295898, +0.946045
1490302132.999913, 1490302133.002319, -0.185669, +0.994812, +0.150330, +8.453369, +3.295898, +0.946045
1490302133.002583, 1490302133.005044, -0.185669, +0.994812, +0.155273, +8.361816, +4.394531, +2.288818
1490302133.005308, 1490302133.007724, -0.182373, +0.987122, +0.155273, +8.361816, +4.394531, +2.288818
1490302133.007989, 1490302133.010406, -0.182373, +0.987122, +0.155273, +8.499146, +4.547119, +1.785278
1490302133.010671, 1490302133.013079, -0.182373, +0.987122, +0.155273, +8.499146, +4.547119, +1.785278
1490302133.013345, 1490302133.015765, -0.188232, +0.988037, +0.161499, +8.468628, +5.401611, +2.883911
1490302133.016030, 1490302133.018446, -0.188232, +0.988037, +0.161499, +8.468628, +5.401611, +2.883911
1490302133.018711, 1490302133.021125, -0.188232, +0.988037, +0.161499, +8.255005, +5.187988, +2.883911
1490302133.021390, 1490302133.023802, -0.188232, +0.988037, +0.161499, +8.255005, +5.187988, +2.883911
1490302133.024066, 1490302133.026396, -0.182007, +0.996094, +0.158203, +8.255005, +6.195068, +3.860474
1490302133.026653, 1490302133.028941, -0.182007, +0.996094, +0.158203, +8.926392, +6.195068, +3.860474
1490302133.029198, 1490302133.031487, -0.182007, +0.996094, +0.158203, +8.926392, +6.195068, +4.501343
1490302133.031745, 1490302133.034035, -0.182007, +0.996094, +0.172119, +8.636475, +5.737305, +4.501343
1490302133.034293, 1490302133.036710, -0.169556, +0.995361, +0.172119, +8.636475, +5.737305, +4.501343
1490302133.036975, 1490302133.039393, -0.169556, +0.995361, +0.172119, +9.170532, +5.844116, +4.913330
1490302133.039656, 1490302133.042072, -0.169556, +0.995361, +0.172119, +9.170532, +5.844116, +4.913330
1490302133.042335, 1490302133.044754, -0.178162, +0.996460, +0.166443, +8.651733, +5.386353, +5.096436
1490302133.045019, 1490302133.047437, -0.178162, +0.996460, +0.166443, +8.651733, +5.386353, +5.096436
1490302133.047702, 1490302133.050114, -0.178162, +0.996460, +0.166443, +9.185791, +5.249023, +5.218506
1490302133.050380, 1490302133.052794, -0.178162, +0.996460, +0.166443, +9.185791, +5.249023, +5.218506
1490302133.053057, 1490302133.055478, -0.170471, +0.993713, +0.167175, +8.499146, +4.852295, +5.615234
1490302133.055744, 1490302133.058155, -0.170471, +0.993713, +0.167175, +8.499146, +4.852295, +5.615234
1490302133.058419, 1490302133.060842, -0.170471, +0.993713, +0.167175, +9.719849, +4.409790, +5.218506
1490302133.061107, 1490302133.063525, -0.170471, +0.993713, +0.166992, +9.719849, +4.409790, +5.218506
1490302133.063789, 1490302133.066245, -0.172485, +0.992249, +0.166992, +9.414673, +4.547119, +6.652832
1490302133.066511, 1490302133.068929, -0.172485, +0.992249, +0.166992, +9.414673, +4.547119, +6.652832
1490302133.069193, 1490302133.071601, -0.172485, +0.992249, +0.166992, +8.483887, +4.455566, +6.408691
1490302133.071866, 1490302133.074286, -0.176331, +0.987854, +0.160400, +8.483887, +4.455566, +6.408691
1490302133.074560, 1490302133.076847, -0.176331, +0.987854, +0.160400, +8.514404, +5.203247, +7.171631
1490302133.077105, 1490302133.079388, -0.176331, +0.987854, +0.160400, +8.514404, +5.203247, +7.171631
1490302133.079645, 1490302133.081934, -0.176331, +0.987854, +0.160400, +8.270264, +4.379272, +6.988525
1490302133.082191, 1490302133.084484, -0.158936, +0.985840, +0.154724, +8.270264, +4.379272, +6.988525
1490302133.084749, 1490302133.087158, -0.158936, +0.985840, +0.154724, +8.270264, +4.760742, +6.317139
1490302133.087423, 1490302133.089844, -0.158936, +0.985840, +0.154724, +8.972168, +4.760742, +6.317139
1490302133.090180, 1490302133.092582, -0.158936, +0.985840, +0.132385, +8.972168, +4.760742, +7.034302
1490302133.092846, 1490302133.095270, -0.162964, +0.988403, +0.132385, +8.270264, +5.172729, +7.034302
1490302133.095533, 1490302133.097911, -0.162964, +0.988403, +0.132385, +8.270264, +5.172729, +5.401611
1490302133.098171, 1490302133.100703, -0.162964, +0.988403, +0.132385, +7.461548, +5.889893, +5.401611
1490302133.100967, 1490302133.103368, -0.162048, +0.994629, +0.142090, +7.461548, +5.889893, +5.706787
1490302133.103748, 1490302133.106147, -0.162048, +0.994629, +0.142090, +6.835938, +7.202148, +5.706787
1490302133.106411, 1490302133.108788, -0.162048, +0.994629, +0.142090, +6.835938, +7.202148, +5.706787
1490302133.109050, 1490302133.111475, -0.162048, +0.994629, +0.142090, +6.118774, +7.659912, +5.325317
1490302133.111738, 1490302133.114146, -0.147217, +0.998291, +0.141174, +6.118774, +7.659912, +5.325317
1490302133.114419, 1490302133.116830, -0.147217, +0.998291, +0.141174, +6.423950, +8.819580, +5.401611
1490302133.117094, 1490302133.119507, -0.147217, +0.998291, +0.141174, +6.423950, +8.819580, +5.401611
1490302133.119773, 1490302133.122181, -0.147217, +0.990967, +0.153809, +5.813599, +8.987427, +4.592896
1490302133.122446, 1490302133.124853, -0.144653, +0.990967, +0.153809, +5.813599, +8.987427, +4.592896
1490302133.125110, 1490302133.127398, -0.144653, +0.990967, +0.153809, +6.118774, +9.963989, +3.479004
1490302133.127655, 1490302133.129941, -0.144653, +0.990967, +0.153809, +6.118774, +9.963989, +3.479004
1490302133.130198, 1490302133.132491, -0.151428, +0.982727, +0.161865, +5.218506, +10.025024, +2.685547
1490302133.132751, 1490302133.135104, -0.151428, +0.982727, +0.161865, +5.218506, +10.025024, +2.685547
1490302133.135374, 1490302133.137788, -0.151428, +0.982727, +0.161865, +5.905151, +10.482788, +1.815796
1490302133.138054, 1490302133.140462, -0.151428, +0.982727, +0.161865, +5.905151, +10.482788, +1.815796
1490302133.140728, 1490302133.143142, -0.117371, +0.994629, +0.183105, +5.447388, +9.872437, +2.380371
1490302133.143407, 1490302133.145835, -0.117371, +0.994629, +0.183105, +5.447388, +9.872437, +2.380371
1490302133.146100, 1490302133.148515, -0.117371, +0.994629, +0.183105, +5.752563, +8.834839, +0.839233
1490302133.148782, 1490302133.151193, -0.117371, +0.994629, +0.165894, +5.752563, +8.834839, +0.839233
1490302133.151459, 1490302133.153872, -0.101990, +0.996643, +0.165894, +5.752563, +7.568359, +0.869751
1490302133.154138, 1490302133.156561, -0.101990, +0.996643, +0.165894, +5.569458, +7.568359, +0.869751
1490302133.156826, 1490302133.159242, -0.101990, +0.996643, +0.165894, +5.569458, +5.645752, -0.289917
1490302133.159509, 1490302133.161919, -0.107300, +0.988953, +0.167175, +5.371094, +5.645752, -0.289917
1490302133.162185, 1490302133.164648, -0.107300, +0.988953, +0.167175, +5.371094, +5.645752, -0.427246
1490302133.164914, 1490302133.167330, -0.107300, +0.988953, +0.167175, +5.050659, +4.684448, -0.427246
1490302133.167595, 1490302133.170010, -0.107300, +0.988953, +0.167175, +5.050659, +4.684448, -1.770020
1490302133.170275, 1490302133.172690, -0.119934, +0.990051, +0.139160, +4.974365, +2.914429, -1.770020
1490302133.172954, 1490302133.175327, -0.119934, +0.990051, +0.139160, +4.974365, +2.914429, -1.037598
1490302133.175584, 1490302133.177873, -0.119934, +0.990051, +0.139160, +5.325317, +1.846313, -1.037598
1490302133.178130, 1490302133.180426, -0.119934, +0.990051, +0.158936, +5.325317, +1.846313, -1.037598
1490302133.180684, 1490302133.182970, -0.154724, +1.000854, +0.158936, +4.623413, +1.113892, -2.090454
1490302133.183226, 1490302133.185576, -0.154724, +1.000854, +0.158936, +4.623413, +1.113892, -2.090454
1490302133.185840, 1490302133.188257, -0.154724, +1.000854, +0.158936, +4.364014, +0.991821, -1.251221
1490302133.188520, 1490302133.190930, -0.148865, +1.006165, +0.161865, +4.364014, +0.991821, -1.251221
1490302133.191194, 1490302133.193601, -0.148865, +1.006165, +0.161865, +4.928589, -0.061035, -1.434326
1490302133.193866, 1490302133.196291, -0.148865, +1.006165, +0.161865, +4.928589, -0.061035, -1.434326
1490302133.196555, 1490302133.198968, -0.148865, +1.006165, +0.161865, +5.905151, -0.808716, -1.678467
1490302133.199233, 1490302133.201649, -0.150696, +0.996460, +0.168823, +5.905151, -0.808716, -1.678467
1490302133.201915, 1490302133.204324, -0.150696, +0.996460, +0.168823, +4.608154, -1.007080, -2.258301
1490302133.204587, 1490302133.206996, -0.150696, +0.996460, +0.168823, +4.608154, -1.007080, -2.258301
1490302133.207365, 1490302133.209782, -0.150696, +0.996460, +0.163696, +4.409790, -0.442505, -3.021240
1490302133.210047, 1490302133.212459, -0.158020, +0.987671, +0.163696, +4.409790, -0.442505, -3.021240
1490302133.212724, 1490302133.215148, -0.158020, +0.987671, +0.163696, +3.326416, +0.549316, -2.105713
1490302133.215415, 1490302133.217839, -0.158020, +0.987671, +0.163696, +3.326416, +0.549316, -2.105713
1490302133.218103, 1490302133.220513, -0.128174, +0.992065, +0.176880, +3.326416, +0.885010, -3.173828
1490302133.220778, 1490302133.223195, -0.128174, +0.992065, +0.176880, +3.433228, +0.885010, -3.173828
1490302133.223460, 1490302133.225808, -0.128174, +0.992065, +0.176880, +3.433228, +0.900269, -2.746582
1490302133.226065, 1490302133.228352, -0.128174, +0.992065, +0.176880, +3.387451, +0.900269, -2.746582
1490302133.228608, 1490302133.230901, -0.132935, +0.989319, +0.162781, +3.387451, +0.900269, -4.150391
1490302133.231158, 1490302133.233441, -0.132935, +0.989319, +0.162781, +4.074097, +0.640869, -4.150391
1490302133.233698, 1490302133.236088, -0.132935, +0.989319, +0.162781, +4.074097, +0.640869, -4.150391
1490302133.236353, 1490302133.238771, -0.132935, +0.989319, +0.142090, +3.295898, +0.869751, -4.150391
1490302133.239036, 1490302133.241448, -0.136414, +0.989868, +0.142090, +3.295898, +0.869751, -4.150391
1490302133.241713, 1490302133.244127, -0.136414, +0.989868, +0.142090, +2.975464, +1.281738, -5.187988
1490302133.244445, 1490302133.246899, -0.136414, +0.989868, +0.142090, +2.975464, +1.281738, -5.187988
1490302133.247162, 1490302133.249558, -0.130005, +0.991882, +0.137512, +1.937866, +2.304077, -5.386353
1490302133.249822, 1490302133.252222, -0.130005, +0.991882, +0.137512, +1.937866, +2.304077, -5.386353
1490302133.252485, 1490302133.254891, -0.130005, +0.991882, +0.137512, +1.693726, +2.502441, -5.813599
1490302133.255156, 1490302133.257567, -0.130005, +0.991882, +0.137512, +1.693726, +2.502441, -5.813599
1490302133.257830, 1490302133.260247, -0.138794, +0.983459, +0.160767, +0.671387, +3.356934, -5.783081
1490302133.260512, 1490302133.262922, -0.138794, +0.983459, +0.160767, +0.671387, +3.356934, -5.783081
1490302133.263185, 1490302133.265655, -0.138794, +0.983459, +0.160767, +1.464844, +4.745483, -6.912231
1490302133.265919, 1490302133.268334, -0.138794, +0.979431, +0.175781, +1.464844, +4.745483, -6.912231
1490302133.268596, 1490302133.271010, -0.146484, +0.979431, +0.175781, +0.396729, +6.301880, -6.439209
1490302133.271277, 1490302133.273691, -0.146484, +0.979431, +0.175781, +0.396729, +6.301880, -6.439209
1490302133.273955, 1490302133.276272, -0.146484, +0.979431, +0.175781, +0.671387, +8.071899, -6.988525
1490302133.276530, 1490302133.278817, -0.140625, +0.985657, +0.179993, +0.671387, +8.071899, -6.988525
1490302133.279073, 1490302133.281363, -0.140625, +0.985657, +0.179993, +0.671387, +9.643555, -7.095337
1490302133.281619, 1490302133.283906, -0.140625, +0.985657, +0.179993, +0.198364, +9.643555, -7.095337
1490302133.284163, 1490302133.286574, -0.140625, +0.985657, +0.179993, +0.198364, +9.643555, -8.071899
1490302133.286841, 1490302133.289253, -0.117371, +0.983643, +0.188782, +0.366211, +9.490967, -8.071899
1490302133.289519, 1490302133.291928, -0.117371, +0.983643, +0.188782, +0.366211, +9.490967, -8.804321
1490302133.292193, 1490302133.294649, -0.117371, +0.983643, +0.188782, -0.137329, +8.575439, -8.804321
1490302133.294916, 1490302133.297329, -0.117371, +1.030518, +0.188049, -0.137329, +8.575439, -10.208130
1490302133.297598, 1490302133.300009, -0.099426, +0.985291, +0.188049, +0.427246, +7.171631, -10.208130
1490302133.300279, 1490302133.302697, -0.099426, +0.985291, +0.188049, +0.427246, +7.171631, -10.208130
1490302133.302967, 1490302133.305429, -0.099426, +0.985291, +0.188049, +0.549316, +5.065918, -10.543823
1490302133.305698, 1490302133.308116, -0.106750, +1.000488, +0.180725, +0.549316, +5.065918, -10.543823
1490302133.308386, 1490302133.310798, -0.106750, +1.000488, +0.180725, +1.266479, +3.158569, -11.978149
1490302133.311065, 1490302133.313481, -0.106750, +1.000488, +0.180725, +1.266479, +3.158569, -11.978149
1490302133.313862, 1490302133.316297, -0.106750, +1.000488, +0.227600, +0.823975, +1.159668, -12.619019
1490302133.316566, 1490302133.318980, -0.109863, +1.007629, +0.197388, +0.823975, +1.159668, -12.619019
1490302133.319249, 1490302133.321666, -0.109863, +1.007629, +0.197388, +1.556396, -0.488281, -13.778687
1490302133.321933, 1490302133.324349, -0.109863, +1.007629, +0.197388, +1.556396, -0.488281, -13.778687
1490302133.324661, 1490302133.326955, -0.109863, +0.999390, +0.209839, +1.235962, -1.617432, -13.504028
1490302133.327216, 1490302133.329511, -0.123047, +0.999390, +0.209839, +1.235962, -1.617432, -13.504028
1490302133.329772, 1490302133.332056, -0.123047, +0.999390, +0.209839, +2.029419, -2.349854, -14.328003
1490302133.332317, 1490302133.334673, -0.123047, +0.999390, +0.209839, +2.029419, -2.349854, -14.328003
1490302133.334943, 1490302133.337365, -0.144470, +0.983643, +0.203247, +2.334595, -2.868652, -14.328003
1490302133.337634, 1490302133.340048, -0.144470, +0.983643, +0.203247, +2.334595, -2.868652, -14.328003
1490302133.340316, 1490302133.342728, -0.144470, +0.983643, +0.203247, +2.838135, -2.349854, -14.755249
1490302133.342997, 1490302133.345484, -0.144470, +0.983643, +0.203247, +2.838135, -2.349854, -14.755249
1490302133.345753, 1490302133.348170, -0.147583, +0.982544, +0.198669, +1.907349, -1.510620, -14.602661
1490302133.348439, 1490302133.350858, -0.147583, +0.982544, +0.198669, +1.907349, -1.510620, -14.602661
1490302133.351125, 1490302133.353535, -0.147583, +0.982544, +0.198669, +1.907349, -1.220703, -15.472412
1490302133.353805, 1490302133.356262, -0.147583, +0.991333, +0.185852, +2.655029, -1.220703, -15.472412
1490302133.356529, 1490302133.358945, -0.146301, +0.991333, +0.185852, +2.655029, -1.464844, -14.999390
1490302133.359213, 1490302133.361628, -0.146301, +0.991333, +0.185852, +2.273560, -1.464844, -14.999390
1490302133.361898, 1490302133.364309, -0.146301, +0.991333, +0.185852, +2.273560, -1.464844, -15.777588
1490302133.364585, 1490302133.366991, -0.138428, +0.985291, +0.176880, +2.410889, -1.708984, -15.777588
1490302133.367259, 1490302133.369670, -0.138428, +0.985291, +0.176880, +2.410889, -1.708984, -14.801025
1490302133.369938, 1490302133.372358, -0.138428, +0.985291, +0.176880, +2.029419, -1.586914, -14.801025
1490302133.372626, 1490302133.375020, -0.138428, +0.985291, +0.177612, +2.029419, -1.586914, -15.579224
1490302133.375281, 1490302133.377564, -0.145752, +0.990051, +0.177612, +1.907349, -2.349854, -15.579224
1490302133.377825, 1490302133.380113, -0.145752, +0.990051, +0.177612, +1.907349, -2.349854, -15.579224
1490302133.380376, 1490302133.382665, -0.145752, +0.990051, +0.177612, +2.334595, -2.578735, -15.472412
1490302133.382928, 1490302133.385287, -0.145752, +0.997559, +0.195923, +2.334595, -2.578735, -15.472412
1490302133.385554, 1490302133.387970, -0.162415, +0.997559, +0.195923, +1.922607, -2.868652, -15.060425
1490302133.388239, 1490302133.390651, -0.162415, +0.997559, +0.195923, +1.922607, -2.868652, -15.060425
1490302133.390919, 1490302133.393334, -0.162415, +0.997559, +0.195923, +3.280640, -2.777100, -14.724731
1490302133.393602, 1490302133.396064, -0.180542, +0.998291, +0.229797, +3.280640, -2.777100, -14.724731
1490302133.396334, 1490302133.398748, -0.180542, +0.998291, +0.229797, +3.097534, -3.189087, -13.916016
1490302133.399018, 1490302133.401438, -0.180542, +0.998291, +0.229797, +3.097534, -3.189087, -13.916016
1490302133.401706, 1490302133.404125, -0.180542, +0.998291, +0.228699, +4.440308, -2.990723, -13.595581
1490302133.404433, 1490302133.406849, -0.188599, +0.995544, +0.228699, +4.440308, -2.990723, -13.595581
1490302133.407117, 1490302133.409535, -0.188599, +0.995544, +0.228699, +4.577637, -2.563477, -11.840820
1490302133.409802, 1490302133.412222, -0.188599, +0.995544, +0.228699, +4.577637, -2.563477, -11.840820
1490302133.412490, 1490302133.414927, -0.236023, +0.993713, +0.251770, +7.080078, -2.334595, -11.169434
1490302133.415196, 1490302133.417607, -0.236023, +0.993713, +0.251770, +7.080078, -2.334595, -11.169434
1490302133.417981, 1490302133.420398, -0.236023, +0.993713, +0.251770, +9.231567, -1.174927, -9.536743
1490302133.420663, 1490302133.423081, -0.236023, +0.993713, +0.251770, +9.231567, -1.174927, -9.536743
1490302133.423344, 1490302133.425691, -0.211670, +0.964417, +0.265137, +10.314941, +0.015259, -8.255005
1490302133.425956, 1490302133.428245, -0.211670, +0.964417, +0.265137, +10.314941, +0.015259, -8.255005
1490302133.428507, 1490302133.430801, -0.211670, +0.964417, +0.265137, +10.314941, +0.015259, -6.454468
1490302133.431062, 1490302133.433352, -0.211670, +0.964417, +0.233643, +9.109497, +0.686646, -6.454468
1490302133.433611, 1490302133.436026, -0.188965, +0.976135, +0.233643, +9.109497, +0.686646, -5.996704
1490302133.436294, 1490302133.438712, -0.188965, +0.976135, +0.233643, +9.689331, +1.266479, -5.996704
1490302133.438977, 1490302133.441392, -0.188965, +0.976135, +0.233643, +9.689331, +1.266479, -5.996704
1490302133.441656, 1490302133.444075, -0.176147, +0.977966, +0.217896, +9.567261, +1.617432, -3.936768
1490302133.444340, 1490302133.446755, -0.176147, +0.977966, +0.217896, +9.567261, +1.617432, -3.936768
1490302133.447020, 1490302133.449434, -0.176147, +0.977966, +0.217896, +9.613037, +0.778198, -3.234863
1490302133.449699, 1490302133.452115, -0.176147, +0.977966, +0.217896, +9.613037, +0.778198, -3.234863
1490302133.452382, 1490302133.454840, -0.200134, +0.979797, +0.198303, +10.452271, +0.808716, -1.541138
1490302133.455108, 1490302133.457533, -0.200134, +0.979797, +0.198303, +10.452271, +0.808716, -1.541138
1490302133.457802, 1490302133.460219, -0.200134, +0.979797, +0.198303, +10.208130, +1.327515, -0.213623
1490302133.460489, 1490302133.462903, -0.200134, +1.026672, +0.194458, +10.208130, +1.327515, -0.213623
1490302133.463171, 1490302133.465638, -0.217346, +0.985474, +0.194458, +10.574341, +2.746582, +1.510620
1490302133.465907, 1490302133.468322, -0.217346, +0.985474, +0.194458, +10.574341, +2.746582, +1.510620
1490302133.468591, 1490302133.471002, -0.217346, +0.985474, +0.194458, +9.872437, +4.440308, +2.777100
1490302133.471268, 1490302133.473687, -0.220459, +0.987854, +0.197754, +9.872437, +4.440308, +2.777100
1490302133.473952, 1490302133.476271, -0.220459, +0.987854, +0.197754, +10.437012, +6.774902, +4.516602
1490302133.476534, 1490302133.478825, -0.220459, +0.987854, +0.197754, +10.437012, +6.774902, +4.516602
1490302133.479085, 1490302133.481375, -0.220459, +0.987854, +0.197754, +9.780884, +8.300781, +5.661011
1490302133.481633, 1490302133.483920, -0.185852, +0.980164, +0.190063, +9.780884, +8.300781, +5.661011
1490302133.484178, 1490302133.486595, -0.185852, +0.980164, +0.190063, +9.780884, +9.674072, +5.966187
1490302133.486861, 1490302133.489275, -0.185852, +0.980164, +0.190063, +10.375977, +9.674072, +5.966187
1490302133.489542, 1490302133.491957, -0.185852, +0.980164, +0.199585, +10.375977, +11.108398, +7.247925
1490302133.492229, 1490302133.494653, -0.186768, +0.982544, +0.199585, +10.070801, +11.108398, +7.247925
1490302133.494924, 1490302133.497332, -0.186768, +0.982544, +0.199585, +10.070801, +11.108398, +6.576538
1490302133.497603, 1490302133.500024, -0.186768, +0.982544, +0.199585, +10.910034, +11.672974, +6.576538
1490302133.500295, 1490302133.502707, -0.161499, +0.970276, +0.203796, +10.910034, +11.672974, +7.339478
1490302133.502978, 1490302133.505441, -0.161499, +0.970276, +0.203796, +11.230469, +12.374878, +7.339478
1490302133.505713, 1490302133.508132, -0.161499, +0.970276, +0.203796, +11.230469, +12.374878, +7.522583
1490302133.508403, 1490302133.510816, -0.161499, +0.970276, +0.203796, +10.269165, +11.474609, +7.522583
1490302133.511087, 1490302133.513499, -0.106384, +0.977417, +0.205994, +10.269165, +11.474609, +6.469727
1490302133.513772, 1490302133.516236, -0.106384, +0.977417, +0.205994, +11.062622, +10.314941, +6.469727
1490302133.516507, 1490302133.518922, -0.106384, +0.977417, +0.205994, +11.062622, +10.314941, +6.469727
1490302133.519193, 1490302133.521610, -0.106384, +0.978882, +0.205994, +10.696411, +9.017944, +7.019043
1490302133.521881, 1490302133.524291, -0.113159, +0.978882, +0.205994, +10.696411, +9.017944, +7.019043
1490302133.524708, 1490302133.527000, -0.113159, +0.978882, +0.205994, +10.620117, +7.476807, +5.828857
1490302133.527264, 1490302133.529555, -0.113159, +0.978882, +0.205994, +10.620117, +7.476807, +5.828857
1490302133.529817, 1490302133.532101, -0.158203, +0.972473, +0.206726, +10.467529, +7.324219, +5.874634
1490302133.532362, 1490302133.534701, -0.158203, +0.972473, +0.206726, +10.467529, +7.324219, +5.874634
1490302133.534970, 1490302133.537388, -0.158203, +0.972473, +0.206726, +10.223389, +7.400513, +5.081177
1490302133.537657, 1490302133.540070, -0.158203, +0.972473, +0.206726, +10.223389, +7.400513, +5.081177
1490302133.540337, 1490302133.542758, -0.152161, +0.980896, +0.185669, +10.665894, +8.987427, +4.501343
1490302133.543029, 1490302133.545455, -0.152161, +0.980896, +0.185669, +10.665894, +8.987427, +4.501343
1490302133.545723, 1490302133.548137, -0.152161, +0.980896, +0.185669, +9.994507, +10.437012, +5.783081
1490302133.548406, 1490302133.550825, -0.152161, +0.982727, +0.183655, +9.994507, +10.437012, +5.783081
1490302133.551093, 1490302133.553507, -0.139160, +0.982727, +0.183655, +9.582520, +10.543823, +4.440308
1490302133.553775, 1490302133.556239, -0.139160, +0.982727, +0.183655, +9.582520, +10.543823, +4.440308
1490302133.556509, 1490302133.558924, -0.139160, +0.982727, +0.183655, +9.918213, +11.413574, +3.570557
1490302133.559195, 1490302133.561608, -0.126160, +0.986755, +0.188416, +9.918213, +11.413574, +3.570557
1490302133.561878, 1490302133.564296, -0.126160, +0.986755, +0.188416, +9.536743, +11.352539, +3.906250
1490302133.564567, 1490302133.566985, -0.126160, +0.986755, +0.188416, +9.536743, +11.352539, +3.906250
1490302133.567253, 1490302133.569669, -0.126160, +0.986755, +0.183838, +9.536743, +9.841919, +2.792358
1490302133.569932, 1490302133.572351, -0.114990, +1.013489, +0.183838, +9.155273, +9.841919, +2.792358
1490302133.572618, 1490302133.575015, -0.114990, +1.013489, +0.183838, +9.155273, +8.529663, +1.098633
1490302133.575273, 1490302133.577554, -0.114990, +1.013489, +0.183838, +9.841919, +8.529663, +1.098633
1490302133.577811, 1490302133.580103, -0.114990, +1.016235, +0.209473, +9.841919, +8.529663, +1.617432
1490302133.580361, 1490302133.582648, -0.115356, +1.016235, +0.209473, +9.368896, +7.583618, +1.617432
1490302133.582905, 1490302133.585286, -0.115356, +1.016235, +0.209473, +9.368896, +7.583618, +1.617432
1490302133.585550, 1490302133.587960, -0.115356, +1.016235, +0.209473, +8.911133, +5.508423, +0.289917
1490302133.588225, 1490302133.590636, -0.140442, +0.998291, +0.205627, +8.911133, +5.508423, +0.289917
1490302133.590903, 1490302133.593323, -0.140442, +0.998291, +0.205627, +9.689331, +4.699707, -0.091553
1490302133.593589, 1490302133.596458, -0.140442, +0.998291, +0.205627, +9.689331, +4.699707, +3.814697
1490302133.596720, 1490302133.599008, -0.140442, +0.951416, +0.218628, +9.445190, +4.516602, +0.381470
1490302133.599267, 1490302133.601553, -0.153809, +0.974121, +0.218628, +9.445190, +4.516602, +0.381470
1490302133.601811, 1490302133.604096, -0.153809, +0.974121, +0.218628, +10.879517, +5.691528, -0.747681
1490302133.604357, 1490302133.606649, -0.153809, +0.974121, +0.218628, +10.879517, +5.691528, -0.747681
1490302133.606910, 1490302133.609194, -0.153809, +0.962036, +0.243164, +11.169434, +7.186890, +0.106812
1490302133.609457, 1490302133.611743, -0.151428, +0.962036, +0.243164, +11.169434, +7.186890, +0.106812
1490302133.612005, 1490302133.614288, -0.151428, +0.962036, +0.243164, +10.467529, +7.904053, +0.030518
1490302133.614547, 1490302133.616836, -0.151428, +0.962036, +0.243164, +10.467529, +7.904053, +0.030518
1490302133.617098, 1490302133.619384, -0.112976, +0.977051, +0.196655, +10.467529, +7.217407, -1.525879
1490302133.619645, 1490302133.621932, -0.112976, +0.977051, +0.196655, +10.025024, +7.217407, -1.525879
1490302133.622193, 1490302133.624487, -0.112976, +0.977051, +0.196655, +10.025024, +7.217407, -1.983643
1490302133.624747, 1490302133.627038, -0.112976, +0.977051, +0.196655, +10.299683, +6.637573, -1.983643
1490302133.627418, 1490302133.629712, -0.095398, +1.007080, +0.187134, +10.299683, +6.637573, -1.983643
1490302133.629973, 1490302133.632264, -0.095398, +1.007080, +0.187134, +9.567261, +5.004883, -2.227783
1490302133.632522, 1490302133.634874, -0.095398, +1.007080, +0.187134, +9.567261, +5.004883, -2.227783
1490302133.635138, 1490302133.637552, -0.095398, +1.007080, +0.187134, +10.070801, +2.700806, -3.677368
1490302133.637820, 1490302133.640232, -0.114624, +1.022095, +0.179626, +10.070801, +2.700806, -3.677368
1490302133.640500, 1490302133.642915, -0.114624, +1.022095, +0.179626, +10.086060, +1.541138, -3.219604
1490302133.643183, 1490302133.645642, -0.114624, +1.022095, +0.179626, +10.086060, +1.541138, -3.219604
1490302133.645910, 1490302133.648326, -0.114624, +1.008545, +0.184204, +9.124756, +0.396729, -3.311157
1490302133.648593, 1490302133.651005, -0.131836, +1.008545, +0.184204, +9.124756, +0.396729, -3.311157
1490302133.651270, 1490302133.653681, -0.131836, +1.008545, +0.184204, +9.887695, -0.030518, -4.180908
1490302133.653948, 1490302133.656364, -0.131836, +1.008545, +0.184204, +9.887695, -0.030518, -4.180908
1490302133.656630, 1490302133.659046, -0.146667, +0.994995, +0.202148, +10.375977, +0.503540, -3.662109
1490302133.659314, 1490302133.661729, -0.146667, +0.994995, +0.202148, +10.375977, +0.503540, -3.662109
1490302133.661997, 1490302133.664445, -0.146667, +0.994995, +0.202148, +9.735107, +0.915527, -2.853394
1490302133.664711, 1490302133.667124, -0.146667, +0.994995, +0.212952, +9.735107, +0.915527, -2.853394
1490302133.667389, 1490302133.669795, -0.149780, +0.988953, +0.212952, +9.445190, +1.281738, -3.463745
1490302133.670059, 1490302133.672477, -0.149780, +0.988953, +0.212952, +9.445190, +1.281738, -3.463745
1490302133.672740, 1490302133.675118, -0.149780, +0.988953, +0.212952, +10.940552, +1.464844, -4.455566
1490302133.675379, 1490302133.677670, -0.135315, +0.987488, +0.223572, +10.940552, +1.464844, -4.455566
1490302133.677930, 1490302133.680220, -0.135315, +0.987488, +0.223572, +10.940552, +1.464844, -3.662109
1490302133.680479, 1490302133.682772, -0.135315, +0.987488, +0.223572, +11.703491, +1.434326, -3.662109
1490302133.683032, 1490302133.685378, -0.135315, +0.987488, +0.223572, +11.703491, +1.434326, -2.670288
1490302133.685645, 1490302133.688060, -0.138611, +0.984192, +0.232727, +10.696411, +0.793457, -2.670288
1490302133.688329, 1490302133.690741, -0.138611, +0.984192, +0.232727, +10.696411, +0.793457, -2.670288
1490302133.691009, 1490302133.693425, -0.138611, +0.984192, +0.232727, +11.505127, -0.228882, -3.631592
1490302133.693693, 1490302133.696120, -0.138611, +0.984192, +0.215698, +11.505127, -0.228882, -3.631592
1490302133.696389, 1490302133.698804, -0.137878, +0.984924, +0.215698, +11.672974, -0.732422, -2.960205
1490302133.699070, 1490302133.701485, -0.137878, +0.984924, +0.215698, +11.672974, -0.732422, -2.960205
1490302133.701752, 1490302133.704168, -0.137878, +0.984924, +0.215698, +11.611938, -2.319336, -3.234863
1490302133.704446, 1490302133.706863, -0.123779, +0.990784, +0.192627, +11.611938, -2.319336, -3.234863
1490302133.707130, 1490302133.709544, -0.123779, +0.990784, +0.192627, +12.680054, -2.868652, -3.250122
1490302133.709813, 1490302133.712228, -0.123779, +0.990784, +0.192627, +12.680054, -2.868652, -3.250122
1490302133.712495, 1490302133.714918, -0.123779, +0.990784, +0.192627, +11.749268, -3.173828, -2.655029
1490302133.715185, 1490302133.717598, -0.143738, +0.985474, +0.206543, +11.749268, -3.173828, -2.655029
1490302133.717866, 1490302133.720282, -0.143738, +0.985474, +0.206543, +12.466431, -3.204346, -3.555298
1490302133.720550, 1490302133.722962, -0.143738, +0.985474, +0.206543, +12.466431, -3.204346, -3.555298
1490302133.723232, 1490302133.725618, -0.143738, +0.938599, +0.197205, +12.969971, -2.166748, -2.288818
1490302133.725880, 1490302133.728173, -0.154541, +0.981445, +0.197205, +12.969971, -2.166748, -2.288818
1490302133.728434, 1490302133.730727, -0.154541, +0.981445, +0.197205, +11.825562, -2.182007, -2.166748
1490302133.730988, 1490302133.733274, -0.154541, +0.981445, +0.197205, +11.825562, -2.182007, -2.166748
1490302133.733644, 1490302133.735978, -0.148682, +0.998657, +0.188782, +11.825562, -1.785278, -2.777100
1490302133.736238, 1490302133.738520, -0.148682, +0.998657, +0.188782, +12.756348, -1.785278, -2.777100
1490302133.738781, 1490302133.741072, -0.148682, +0.998657, +0.188782, +12.756348, -1.785278, -1.388550
1490302133.741332, 1490302133.743616, -0.148682, +0.998657, +0.188782, +12.908936, -0.778198, -1.388550
1490302133.743877, 1490302133.746292, -0.144287, +0.998291, +0.194458, +12.908936, -0.778198, -1.388550
1490302133.746561, 1490302133.748977, -0.144287, +0.998291, +0.194458, +12.405396, -0.961304, -1.770020
1490302133.749246, 1490302133.751661, -0.144287, +0.998291, +0.194458, +12.405396, -0.961304, -1.770020
1490302133.751929, 1490302133.754346, -0.144287, +0.998291, +0.194458, +13.565063, -0.549316, -1.739502
1490302133.754678, 1490302133.757092, -0.133484, +0.986206, +0.212036, +13.565063, -0.549316, -1.739502
1490302133.757361, 1490302133.759770, -0.133484, +0.986206, +0.212036, +13.519287, -1.098633, -0.946045
1490302133.760039, 1490302133.762452, -0.133484, +0.986206, +0.212036, +13.519287, -1.098633, -0.946045
1490302133.762721, 1490302133.765146, -0.133484, +0.982910, +0.205994, +13.565063, -1.892090, -1.815796
1490302133.765413, 1490302133.767830, -0.114624, +0.982910, +0.205994, +13.565063, -1.892090, -1.815796
1490302133.768098, 1490302133.770513, -0.114624, +0.982910, +0.205994, +13.290405, -2.044678, -1.022339
1490302133.770783, 1490302133.773193, -0.114624, +0.982910, +0.205994, +13.290405, -2.044678, -1.022339
1490302133.773461, 1490302133.775817, -0.115723, +0.981812, +0.213135, +12.832642, -3.479004, -1.556396
1490302133.776078, 1490302133.778370, -0.115723, +0.981812, +0.213135, +12.832642, -3.479004, -1.556396
1490302133.778631, 1490302133.780924, -0.115723, +0.981812, +0.213135, +13.839722, -4.211426, -2.319336
1490302133.781184, 1490302133.783476, -0.115723, +0.981812, +0.213135, +13.839722, -4.211426, -2.319336
1490302133.783737, 1490302133.786144, -0.124329, +0.980347, +0.192810, +13.610840, -4.638672, -1.205444
1490302133.786414, 1490302133.788827, -0.124329, +0.980347, +0.192810, +13.610840, -4.638672, -1.205444
1490302133.789095, 1490302133.791509, -0.124329, +0.980347, +0.192810, +13.610840, -5.599976, -1.464844
1490302133.791779, 1490302133.794190, -0.124329, +0.993896, +0.165710, +13.366699, -5.599976, -1.464844
1490302133.794467, 1490302133.796885, -0.134216, +0.993896, +0.165710, +13.366699, -5.371094, -1.495361
1490302133.797152, 1490302133.799568, -0.134216, +0.993896, +0.165710, +14.022827, -5.371094, -1.495361
1490302133.799836, 1490302133.802250, -0.134216, +0.993896, +0.165710, +14.022827, -5.371094, -0.122070
1490302133.802518, 1490302133.804946, -0.136230, +0.988403, +0.187500, +13.916016, -5.401611, -0.122070
1490302133.805217, 1490302133.807634, -0.136230, +0.988403, +0.187500, +13.916016, -5.401611, -0.488281
1490302133.807902, 1490302133.810315, -0.136230, +0.988403, +0.187500, +14.236450, -5.401611, -0.488281
1490302133.810584, 1490302133.813000, -0.136230, +0.988403, +0.192810, +14.236450, -5.401611, +0.411987
1490302133.813268, 1490302133.815698, -0.156006, +0.984924, +0.192810, +14.328003, -4.486084, +0.411987
1490302133.815968, 1490302133.818386, -0.156006, +0.984924, +0.192810, +14.328003, -4.486084, +0.411987
1490302133.818653, 1490302133.821068, -0.156006, +0.984924, +0.192810, +14.373779, -4.272461, +0.366211
1490302133.821335, 1490302133.823755, -0.136230, +0.998840, +0.194458, +14.373779, -4.272461, +0.366211
1490302133.824023, 1490302133.826351, -0.136230, +0.998840, +0.194458, +14.602661, -3.997803, +1.770020
1490302133.826614, 1490302133.828905, -0.136230, +0.998840, +0.194458, +14.602661, -3.997803, +1.770020
1490302133.829166, 1490302133.831454, -0.136230, +0.998840, +0.194458, +14.953613, -3.860474, +1.708984
1490302133.831714, 1490302133.834004, -0.127991, +0.976868, +0.218994, +14.953613, -3.860474, +1.708984
1490302133.834264, 1490302133.836689, -0.127991, +0.976868, +0.218994, +14.892578, -3.997803, +2.670288
1490302133.837070, 1490302133.839482, -0.127991, +0.976868, +0.218994, +14.892578, -3.997803, +2.670288
1490302133.839749, 1490302133.842164, -0.127991, +0.976868, +0.199402, +15.411377, -4.119873, +2.441406
1490302133.842430, 1490302133.844858, -0.133301, +0.985474, +0.199402, +15.411377, -4.119873, +2.441406
1490302133.845126, 1490302133.847540, -0.133301, +0.985474, +0.199402, +15.655518, -4.150391, +3.616333
1490302133.847807, 1490302133.850220, -0.133301, +0.985474, +0.199402, +15.655518, -4.150391, +3.616333
1490302133.850488, 1490302133.852909, -0.120667, +0.980347, +0.199768, +16.204834, -4.623413, +3.417969
1490302133.853181, 1490302133.855642, -0.120667, +0.980347, +0.199768, +16.204834, -4.623413, +3.417969
1490302133.855911, 1490302133.858321, -0.120667, +0.980347, +0.199768, +16.006470, -4.409790, +4.913330
1490302133.858591, 1490302133.861007, -0.120667, +0.980347, +0.199768, +16.006470, -4.409790, +4.913330
1490302133.861276, 1490302133.863693, -0.146851, +0.991516, +0.168640, +16.067505, -4.714966, +4.776001
1490302133.863960, 1490302133.866377, -0.146851, +0.991516, +0.168640, +16.067505, -4.714966, +4.776001
1490302133.866644, 1490302133.869064, -0.146851, +0.991516, +0.168640, +16.067505, -3.433228, +5.615234
1490302133.869332, 1490302133.871744, -0.146851, +0.991516, +0.182007, +16.830444, -3.433228, +5.615234
1490302133.872011, 1490302133.874434, -0.153259, +0.995728, +0.182007, +16.830444, -3.128052, +6.851196
1490302133.874697, 1490302133.876989, -0.153259, +0.995728, +0.182007, +16.311646, -3.128052, +6.851196
1490302133.877250, 1490302133.879543, -0.153259, +0.995728, +0.182007, +16.311646, -3.128052, +8.255005
1490302133.879806, 1490302133.882098, -0.204895, +0.981262, +0.209290, +16.769409, -2.304077, +8.255005
1490302133.882360, 1490302133.884684, -0.204895, +0.981262, +0.209290, +16.769409, -2.304077, +8.255005
1490302133.884945, 1490302133.887234, -0.204895, +0.981262, +0.209290, +14.602661, -0.152588, +9.445190
1490302133.887495, 1490302133.889783, -0.204895, +0.981262, +0.209290, +14.602661, -0.152588, +9.445190
1490302133.890044, 1490302133.892332, -0.210022, +1.007812, +0.175232, +15.121460, +1.571655, +8.880615
1490302133.892594, 1490302133.894922, -0.210022, +1.007812, +0.175232, +15.121460, +1.571655, +8.880615
1490302133.895192, 1490302133.897604, -0.210022, +1.007812, +0.175232, +15.548706, +4.013062, +9.109497
1490302133.897875, 1490302133.900286, -0.210022, +1.007812, +0.175232, +15.548706, +4.013062, +9.109497
1490302133.900554, 1490302133.902965, -0.063354, +1.024475, +0.170654, +15.518188, +5.340576, +8.316040
1490302133.903232, 1490302133.905655, -0.063354, +1.024475, +0.170654, +15.518188, +5.340576, +8.316040
1490302133.905922, 1490302133.908335, -0.063354, +1.024475, +0.170654, +16.250610, +3.952026, +8.590698
1490302133.908604, 1490302133.911015, -0.063354, +0.996460, +0.211121, +16.250610, +3.952026, +8.590698
1490302133.911283, 1490302133.913697, -0.068848, +0.996460, +0.211121, +16.586304, +2.731323, +6.652832
1490302133.913968, 1490302133.916422, -0.068848, +0.996460, +0.211121, +16.586304, +2.731323, +6.652832
1490302133.916690, 1490302133.919102, -0.068848, +0.996460, +0.211121, +16.632080, +2.410889, +6.591797
1490302133.919370, 1490302133.921782, -0.063538, +0.916260, +0.224854, +16.632080, +2.410889, +6.591797
1490302133.922050, 1490302133.924472, -0.063538, +0.916260, +0.224854, +12.725830, +1.083374, +6.179810
1490302133.924740, 1490302133.927155, -0.063538, +0.916260, +0.224854, +15.609741, +1.083374, +6.179810
1490302133.927424, 1490302133.929837, -0.063538, +0.916260, +0.166077, +15.609741, -0.534058, +5.081177
1490302133.930108, 1490302133.932524, -0.072693, +0.946838, +0.166077, +16.235352, -0.534058, +5.081177
1490302133.932792, 1490302133.935224, -0.072693, +0.946838, +0.166077, +16.235352, -0.534058, +6.256104
1490302133.935486, 1490302133.937778, -0.072693, +0.946838, +0.166077, +15.960693, -2.258301, +6.256104
1490302133.938039, 1490302133.940333, -0.089905, +1.001587, +0.139526, +15.960693, -2.258301, +5.676270
1490302133.940594, 1490302133.942889, -0.089905, +1.001587, +0.139526, +15.640259, -4.089355, +5.676270
1490302133.943257, 1490302133.945653, -0.089905, +1.001587, +0.139526, +15.640259, -4.089355, +5.676270
1490302133.945919, 1490302133.948317, -0.089905, +1.001587, +0.139526, +15.975952, -4.470825, +5.554199
1490302133.948582, 1490302133.950980, -0.114441, +1.018433, +0.120117, +15.975952, -4.470825, +5.554199
1490302133.951249, 1490302133.953649, -0.114441, +1.018433, +0.120117, +15.014648, -4.638672, +6.454468
1490302133.953916, 1490302133.956307, -0.114441, +1.018433, +0.120117, +15.014648, -4.638672, +6.454468
1490302133.956574, 1490302133.958948, -0.114441, +1.018433, +0.166992, +15.167236, -3.936768, +6.057739
1490302133.959213, 1490302133.961589, -0.114075, +0.993530, +0.140991, +15.167236, -3.936768, +6.057739
1490302133.961855, 1490302133.964231, -0.114075, +0.993530, +0.140991, +14.129639, -2.563477, +7.598877
1490302133.964579, 1490302133.967006, -0.114075, +0.993530, +0.140991, +14.129639, -2.563477, +7.598877
1490302133.967274, 1490302133.969687, -0.107666, +0.994812, +0.130188, +12.817383, -2.151489, +7.522583
1490302133.969956, 1490302133.972375, -0.107666, +0.994812, +0.130188, +12.817383, -2.151489, +7.522583
1490302133.972644, 1490302133.975069, -0.107666, +0.994812, +0.130188, +13.031006, -0.686646, +7.095337
1490302133.975340, 1490302133.977754, -0.107666, +0.994812, +0.130188, +13.031006, -0.686646, +7.095337
1490302133.978023, 1490302133.980435, -0.068115, +1.022095, +0.163330, +12.512207, -1.144409, +7.324219
1490302133.980702, 1490302133.983116, -0.068115, +1.022095, +0.163330, +12.512207, -1.144409, +7.324219
1490302133.983383, 1490302133.985787, -0.068115, +1.022095, +0.163330, +13.946533, -1.724243, +5.783081
1490302133.986048, 1490302133.988338, -0.068115, +1.022095, +0.211304, +13.946533, -1.724243, +5.783081
1490302133.988598, 1490302133.990888, -0.065369, +1.009094, +0.211304, +13.946533, -1.876831, +6.759644
1490302133.991149, 1490302133.993436, -0.065369, +1.009094, +0.211304, +14.434814, -1.876831, +6.759644
1490302133.993696, 1490302133.995997, -0.065369, +1.009094, +0.211304, +14.434814, -1.876831, +6.973267
1490302133.996257, 1490302133.998546, -0.065369, +0.985474, +0.196472, +13.244629, -3.448486, +6.973267
1490302133.998806, 1490302134.001087, -0.087341, +0.985474, +0.196472, +13.244629, -3.448486, +6.973267
1490302134.001348, 1490302134.003633, -0.087341, +0.985474, +0.196472, +13.732910, -4.425049, +5.676270
1490302134.003894, 1490302134.006293, -0.087341, +0.985474, +0.196472, +13.732910, -4.425049, +5.676270
1490302134.006563, 1490302134.008983, -0.059875, +0.974487, +0.197205, +15.014648, -4.928589, +5.325317
1490302134.009251, 1490302134.011669, -0.059875, +0.974487, +0.197205, +15.014648, -4.928589, +5.325317
1490302134.011938, 1490302134.014349, -0.059875, +0.974487, +0.197205, +14.602661, -5.798340, +6.164551
1490302134.014672, 1490302134.017088, -0.059875, +0.974487, +0.197205, +14.602661, -5.798340, +6.164551
1490302134.017356, 1490302134.019772, -0.082031, +0.956726, +0.186951, +14.236450, -7.019043, +5.401611
1490302134.020040, 1490302134.022456, -0.082031, +0.956726, +0.186951, +14.236450, -7.019043, +5.401611
1490302134.022723, 1490302134.025146, -0.082031, +0.956726, +0.186951, +15.258789, -5.950928, +6.286621
1490302134.025415, 1490302134.027827, -0.082031, +0.989502, +0.164062, +15.258789, -5.950928, +6.286621
1490302134.028097, 1490302134.030510, -0.113159, +0.989502, +0.164062, +14.999390, -5.233765, +8.041382
1490302134.030780, 1490302134.033191, -0.113159, +0.989502, +0.164062, +14.999390, -5.233765, +8.041382
1490302134.033460, 1490302134.035823, -0.113159, +0.989502, +0.164062, +14.663696, -4.013062, +8.468628
1490302134.036085, 1490302134.038378, -0.110413, +1.013123, +0.153625, +14.663696, -4.013062, +8.468628
1490302134.038639, 1490302134.040933, -0.110413, +1.013123, +0.153625, +15.823364, -2.258301, +8.972168
1490302134.041194, 1490302134.043482, -0.110413, +1.013123, +0.153625, +15.823364, -2.258301, +8.972168
1490302134.043743, 1490302134.046147, -0.110413, +1.013123, +0.153625, +15.823364, -2.258301, +10.635376
1490302134.046530, 1490302134.048943, -0.093018, +1.019714, +0.161133, +15.747070, -0.900269, +10.635376
1490302134.049217, 1490302134.051623, -0.093018, +1.019714, +0.161133, +15.747070, -0.900269, +10.330200
1490302134.051895, 1490302134.054304, -0.093018, +1.019714, +0.161133, +15.380859, -1.007080, +10.330200
1490302134.054575, 1490302134.056989, -0.093018, +1.006897, +0.177612, +15.380859, -1.007080, +10.681152
1490302134.057259, 1490302134.059679, -0.071777, +1.006897, +0.177612, +16.189575, -0.793457, +10.681152
1490302134.059950, 1490302134.062364, -0.071777, +1.006897, +0.177612, +16.189575, -0.793457, +11.734009
1490302134.062636, 1490302134.065059, -0.071777, +1.006897, +0.177612, +15.853882, -1.251221, +11.734009
1490302134.065329, 1490302134.067745, -0.075989, +1.005798, +0.188599, +15.853882, -1.251221, +7.827759
1490302134.068012, 1490302134.070427, -0.075989, +1.005798, +0.188599, +16.113281, -2.243042, +10.253906
1490302134.070697, 1490302134.073115, -0.075989, +1.005798, +0.188599, +16.113281, -2.243042, +10.253906
1490302134.073386, 1490302134.075842, -0.075989, +1.005798, +0.202698, +16.677856, -3.494263, +10.772705
1490302134.076113, 1490302134.078526, -0.044861, +0.994995, +0.202698, +16.677856, -3.494263, +10.772705
1490302134.078798, 1490302134.081216, -0.044861, +0.994995, +0.202698, +15.502930, -5.935669, +10.986328
1490302134.081488, 1490302134.083898, -0.044861, +0.994995, +0.202698, +15.502930, -5.935669, +10.986328
1490302134.084168, 1490302134.086476, -0.069397, +0.986389, +0.172852, +15.747070, -8.087158, +9.216309
1490302134.086738, 1490302134.089035, -0.069397, +0.986389, +0.172852, +15.747070, -8.087158, +9.216309
1490302134.089296, 1490302134.091587, -0.069397, +0.986389, +0.172852, +16.098022, -8.728027, +9.536743
1490302134.091848, 1490302134.094138, -0.069397, +0.986389, +0.172852, +16.098022, -8.728027, +9.536743
1490302134.094441, 1490302134.096859, -0.120117, +1.063477, +0.091003, +14.007568, -9.033203, +9.185791
1490302134.097127, 1490302134.099542, -0.120117, +1.063477, +0.091003, +14.007568, -9.033203, +9.185791
1490302134.099812, 1490302134.102230, -0.120117, +1.063477, +0.091003, +14.755249, -5.752563, +8.346558
1490302134.102500, 1490302134.104924, -0.120117, +1.063477, +0.137878, +14.755249, -5.752563, +8.346558
1490302134.105193, 1490302134.107609, -0.089355, +1.050659, +0.132202, +14.480591, -2.517700, +9.140015
1490302134.107877, 1490302134.110297, -0.089355, +1.050659, +0.132202, +14.480591, -2.517700, +9.140015
1490302134.110565, 1490302134.112977, -0.089355, +1.050659, +0.132202, +14.480591, -1.754761, +7.812500
1490302134.113244, 1490302134.115679, -0.031860, +0.942810, +0.155273, +13.473511, -1.754761, +7.812500
1490302134.115948, 1490302134.118363, -0.031860, +0.942810, +0.155273, +13.473511, -0.686646, +6.347656
1490302134.118632, 1490302134.121048, -0.031860, +0.942810, +0.155273, +13.778687, -0.686646, +6.347656
1490302134.121318, 1490302134.123736, -0.031860, +0.942810, +0.155273, +13.778687, -0.686646, +4.898071
1490302134.124004, 1490302134.126369, -0.026184, +0.971558, +0.192078, +13.031006, -0.549316, +4.898071
1490302134.126632, 1490302134.128921, -0.026184, +0.971558, +0.192078, +13.031006, -0.549316, +2.182007
1490302134.129181, 1490302134.131477, -0.026184, +0.971558, +0.192078, +13.504028, -2.227783, +2.182007
1490302134.131737, 1490302134.134025, -0.026184, +0.971558, +0.192078, +13.504028, -2.227783, +2.182007
1490302134.134286, 1490302134.136710, +0.044312, +1.047546, +0.215515, +14.114380, -4.776001, +0.793457
1490302134.136973, 1490302134.139258, +0.044312, +1.047546, +0.215515, +14.114380, -4.776001, +0.793457
1490302134.139518, 1490302134.141803, +0.044312, +1.047546, +0.215515, +14.450073, -9.109497, -1.846313
1490302134.142064, 1490302134.144351, +0.044312, +1.053406, +0.205444, +14.450073, -9.109497, -1.846313
1490302134.144690, 1490302134.147101, +0.030029, +1.053406, +0.205444, +16.235352, -12.863159, -4.180908
1490302134.147374, 1490302134.149782, +0.030029, +1.053406, +0.205444, +16.235352, -12.863159, -4.180908
1490302134.150161, 1490302134.152577, +0.030029, +1.053406, +0.205444, +16.006470, -15.075684, -3.875732
1490302134.152849, 1490302134.155266, -0.024902, +1.034912, +0.205627, +16.006470, -15.075684, -3.875732
1490302134.155536, 1490302134.157947, -0.024902, +1.034912, +0.205627, +16.296387, -16.784668, -5.050659
1490302134.158217, 1490302134.160628, -0.024902, +1.034912, +0.205627, +16.296387, -16.784668, -5.050659
1490302134.160900, 1490302134.163316, -0.024902, +1.034912, +0.158752, +18.005371, -16.845703, -5.706787
1490302134.163587, 1490302134.166044, -0.070679, +1.028503, +0.173035, +18.005371, -16.845703, -5.706787
1490302134.166315, 1490302134.168725, -0.070679, +1.028503, +0.173035, +17.913818, -16.860962, -3.875732
1490302134.168996, 1490302134.171408, -0.070679, +1.028503, +0.173035, +17.913818, -16.860962, -3.875732
1490302134.171679, 1490302134.174090, -0.090820, +1.047180, +0.196472, +17.776489, -17.562866, -3.631592
1490302134.174361, 1490302134.176660, -0.090820, +1.047180, +0.196472, +17.776489, -17.562866, -3.631592
1490302134.176924, 1490302134.179215, -0.090820, +1.047180, +0.196472, +17.776489, -17.547607, -2.975464
1490302134.179479, 1490302134.181772, -0.090820, +1.047180, +0.196472, +19.393921, -17.547607, -2.975464
1490302134.182038, 1490302134.184327, -0.102356, +1.064026, +0.200867, +19.393921, -17.547607, -1.113892
1490302134.184656, 1490302134.187073, -0.102356, +1.064026, +0.200867, +19.042969, -18.020630, -1.113892
1490302134.187344, 1490302134.189754, -0.102356, +1.064026, +0.200867, +19.042969, -18.020630, -1.113892
1490302134.190025, 1490302134.192441, -0.102356, +1.064026, +0.153992, +19.744873, -19.409180, -0.885010
1490302134.192713, 1490302134.195139, -0.096313, +1.073914, +0.161133, +19.744873, -19.409180, -0.885010
1490302134.195410, 1490302134.197826, -0.096313, +1.073914, +0.161133, +20.935059, -19.378662, +1.296997
1490302134.198098, 1490302134.200511, -0.096313, +1.073914, +0.161133, +20.935059, -19.378662, +1.296997
1490302134.200782, 1490302134.203193, -0.143188, +1.086548, +0.147034, +20.233154, -18.157959, +3.662109
1490302134.203465, 1490302134.205886, -0.173584, +1.086548, +0.147034, +20.233154, -18.157959, +3.662109
1490302134.206157, 1490302134.208573, -0.173584, +1.086548, +0.147034, +21.163940, -16.571045, +4.135132
1490302134.208844, 1490302134.211260, -0.173584, +1.086548, +0.147034, +21.163940, -16.571045, +4.135132
1490302134.211532, 1490302134.213944, -0.140625, +1.122070, +0.121948, +22.323608, -11.901855, +5.920410
1490302134.214215, 1490302134.216522, -0.140625, +1.122070, +0.121948, +22.323608, -11.901855, +5.920410
1490302134.216787, 1490302134.219072, -0.140625, +1.122070, +0.121948, +22.323608, -9.460449, +7.385254
1490302134.219332, 1490302134.221620, -0.140625, +1.122070, +0.121948, +22.323608, -9.460449, +7.385254
1490302134.221882, 1490302134.224172, -0.094666, +1.116577, +0.126709, +23.559570, -7.629395, +8.255005
1490302134.224460, 1490302134.226906, -0.094666, +1.116577, +0.126709, +23.559570, -7.629395, +8.255005
1490302134.227174, 1490302134.229593, -0.094666, +1.116577, +0.126709, +23.635864, -6.195068, +10.589600
1490302134.229863, 1490302134.232280, -0.094666, +1.129761, +0.147766, +23.635864, -6.195068, +10.589600
1490302134.232551, 1490302134.234977, -0.116821, +1.129761, +0.147766, +23.635864, -7.736206, +10.955811
1490302134.235247, 1490302134.237662, -0.116821, +1.129761, +0.147766, +23.513794, -7.736206, +10.955811
1490302134.237935, 1490302134.240346, -0.116821, +1.129761, +0.147766, +23.513794, -9.445190, +9.735107
1490302134.240614, 1490302134.243028, -0.075439, +1.201172, +0.148499, +24.887085, -9.445190, +9.735107
1490302134.243297, 1490302134.245714, -0.075439, +1.201172, +0.148499, +24.887085, -13.351440, +10.437012
1490302134.245989, 1490302134.248402, -0.075439, +1.201172, +0.148499, +24.459839, -12.084961, +10.437012
1490302134.248676, 1490302134.251090, -0.075439, +1.201172, +0.126526, +24.459839, -12.084961, +9.826660
1490302134.251361, 1490302134.253776, -0.035706, +1.262329, +0.126526, +24.032593, -15.396118, +9.826660
1490302134.254154, 1490302134.256464, -0.035706, +1.262329, +0.126526, +24.032593, -15.396118, +9.750366
1490302134.256729, 1490302134.259022, -0.035706, +1.262329, +0.126526, +25.024414, -17.395020, +9.750366
1490302134.259287, 1490302134.261579, -0.094666, +1.294922, +0.088623, +25.024414, -17.395020, +9.750366
1490302134.261843, 1490302134.264138, -0.094666, +1.294922, +0.088623, +25.131226, -19.363403, +9.750366
1490302134.264443, 1490302134.266858, -0.094666, +1.294922, +0.088623, +25.131226, -19.363403, +9.750366
1490302134.267129, 1490302134.269540, -0.094666, +1.294922, +0.088623, +26.596069, -20.675659, +8.651733
1490302134.269812, 1490302134.272220, -0.126343, +1.304993, +0.113525, +26.596069, -20.675659, +8.651733
1490302134.272490, 1490302134.274913, -0.126343, +1.304993, +0.113525, +27.343750, -20.431519, +9.948730
1490302134.275185, 1490302134.277602, -0.126343, +1.304993, +0.113525, +27.343750, -20.431519, +9.948730
1490302134.277873, 1490302134.280289, -0.126343, +1.304993, +0.136597, +26.809692, -20.690918, +9.552002
1490302134.280559, 1490302134.282971, -0.156006, +1.313782, +0.136597, +26.809692, -20.690918, +9.552002
1490302134.283242, 1490302134.285661, -0.156006, +1.313782, +0.136597, +27.496338, -19.485474, +10.742188
1490302134.285934, 1490302134.288342, -0.156006, +1.313782, +0.136597, +27.496338, -19.485474, +10.742188
1490302134.288616, 1490302134.291024, -0.153259, +1.317261, +0.128723, +27.618408, -19.683838, +12.069702
1490302134.291297, 1490302134.293708, -0.153259, +1.317261, +0.128723, +27.618408, -19.683838, +12.069702
1490302134.293982, 1490302134.296339, -0.153259, +1.317261, +0.128723, +28.228760, -20.263672, +14.266968
1490302134.296604, 1490302134.298894, -0.153259, +1.317261, +0.128723, +28.228760, -20.263672, +14.266968
1490302134.299159, 1490302134.301447, -0.181824, +1.318176, +0.097412, +28.228760, -21.331787, +15.487671
1490302134.301713, 1490302134.304003, -0.181824, +1.318176, +0.097412, +28.442383, -21.331787, +15.487671
1490302134.304270, 1490302134.306688, -0.181824, +1.318176, +0.097412, +28.442383, -21.331787, +16.860962
1490302134.306963, 1490302134.309374, -0.181824, +1.318176, +0.097412, +29.403687, -21.148682, +16.860962
1490302134.309647, 1490302134.312065, -0.251953, +1.284302, +0.093750, +29.403687, -21.148682, +17.654419
1490302134.312339, 1490302134.314758, -0.251953, +1.284302, +0.093750, +29.968262, -21.087646, +17.654419
1490302134.315031, 1490302134.317446, -0.251953, +1.284302, +0.093750, +29.968262, -21.087646, +19.561768
1490302134.317719, 1490302134.320128, -0.260925, +1.254639, +0.123596, +29.556274, -20.874023, +19.561768
1490302134.320401, 1490302134.322815, -0.260925, +1.254639, +0.123596, +29.556274, -20.874023, +19.561768
1490302134.323090, 1490302134.325521, -0.260925, +1.254639, +0.123596, +29.083252, -20.568848, +20.462036
1490302134.325794, 1490302134.328209, -0.260925, +1.254639, +0.123596, +29.083252, -20.568848, +20.462036
1490302134.328483, 1490302134.330900, -0.250671, +1.246582, +0.136780, +29.678345, -18.585205, +22.201538
1490302134.331174, 1490302134.333592, -0.250671, +1.246582, +0.136780, +29.678345, -18.585205, +22.201538
1490302134.333863, 1490302134.336283, -0.250671, +1.246582, +0.136780, +29.479980, -17.562866, +23.376465
1490302134.336555, 1490302134.338969, -0.250671, +1.246582, +0.130737, +29.479980, -17.562866, +23.376465
1490302134.339242, 1490302134.341658, -0.220642, +1.246033, +0.130737, +29.510498, -15.670776, +24.612427
1490302134.341934, 1490302134.344349, -0.220642, +1.246033, +0.130737, +29.510498, -15.670776, +24.612427
1490302134.344679, 1490302134.346971, -0.220642, +1.246033, +0.130737, +29.022217, -15.075684, +25.711060
1490302134.347236, 1490302134.349530, -0.252319, +1.243652, +0.167542, +29.022217, -15.075684, +25.711060
1490302134.349796, 1490302134.352090, -0.252319, +1.243652, +0.167542, +29.159546, -13.351440, +26.977539
1490302134.352357, 1490302134.354700, -0.252319, +1.243652, +0.167542, +29.159546, -13.351440, +26.977539
1490302134.354974, 1490302134.357392, -0.252319, +1.243652, +0.167542, +28.549194, -11.215210, +27.832031
1490302134.357774, 1490302134.360184, -0.271545, +1.215820, +0.211670, +28.549194, -11.215210, +27.832031
1490302134.360459, 1490302134.362870, -0.271545, +1.215820, +0.211670, +27.740479, -8.193970, +29.830933
1490302134.363142, 1490302134.365575, -0.271545, +1.215820, +0.211670, +27.740479, -8.193970, +29.830933
1490302134.365847, 1490302134.368256, -0.271545, +1.262695, +0.236938, +27.664185, -6.042480, +31.295776
1490302134.368525, 1490302134.370938, -0.247192, +1.250061, +0.236938, +27.664185, -6.042480, +31.295776
1490302134.371208, 1490302134.373620, -0.247192, +1.250061, +0.236938, +26.931763, -1.586914, +33.798218
1490302134.373891, 1490302134.376308, -0.247192, +1.250061, +0.236938, +26.931763, -1.586914, +33.798218
1490302134.376578, 1490302134.378993, -0.225952, +1.312683, +0.223938, +30.838013, +6.027222, +34.332275
1490302134.379264, 1490302134.381677, -0.225952, +1.312683, +0.223938, +27.542114, +6.027222, +34.332275
1490302134.381947, 1490302134.384359, -0.225952, +1.312683, +0.223938, +27.542114, +13.549805, +37.643433
1490302134.384688, 1490302134.387106, -0.225952, +1.312683, +0.223938, +28.259277, +13.549805, +37.643433
1490302134.387378, 1490302134.389787, -0.149414, +1.323853, +0.164612, +28.259277, +13.549805, +40.679932
1490302134.390059, 1490302134.392474, -0.149414, +1.323853, +0.164612, +27.435303, +15.243530, +40.679932
1490302134.392746, 1490302134.395127, -0.149414, +1.323853, +0.164612, +27.435303, +15.243530, +44.692993
1490302134.395393, 1490302134.397685, -0.102539, +1.326416, +0.153625, +27.648926, +16.433716, +44.692993
1490302134.397951, 1490302134.400244, -0.119751, +1.326416, +0.153625, +27.648926, +16.433716, +44.692993
1490302134.400509, 1490302134.402804, -0.119751, +1.326416, +0.153625, +27.618408, +17.929077, +47.866821
1490302134.403070, 1490302134.405461, -0.119751, +1.326416, +0.153625, +27.618408, +17.929077, +47.866821
1490302134.405735, 1490302134.408151, -0.153259, +1.312317, +0.189697, +27.954102, +18.676758, +51.391602
1490302134.408424, 1490302134.410839, -0.153259, +1.312317, +0.189697, +27.954102, +18.676758, +51.391602
1490302134.411113, 1490302134.413527, -0.153259, +1.312317, +0.189697, +27.542114, +17.791748, +55.526733
1490302134.413800, 1490302134.416246, -0.153259, +1.312317, +0.189697, +27.542114, +17.791748, +55.526733
1490302134.416520, 1490302134.418939, -0.144836, +1.305176, +0.186035, +28.182983, +17.608643, +59.356689
1490302134.419212, 1490302134.421623, -0.144836, +1.305176, +0.186035, +28.182983, +17.608643, +59.356689
1490302134.421895, 1490302134.424305, -0.144836, +1.305176, +0.186035, +27.664185, +15.930176, +63.873291
1490302134.424577, 1490302134.426994, -0.144836, +1.331360, +0.222839, +27.664185, +15.930176, +63.873291
1490302134.427266, 1490302134.429679, -0.110962, +1.331360, +0.222839, +28.228760, +13.992310, +68.420410
1490302134.429952, 1490302134.432365, -0.110962, +1.331360, +0.222839, +28.228760, +13.992310, +68.420410
1490302134.432639, 1490302134.435066, -0.110962, +1.331360, +0.222839, +27.114868, +11.016846, +72.998047
1490302134.435339, 1490302134.437753, -0.070496, +1.423828, +0.273010, +27.114868, +11.016846, +72.998047
1490302134.438027, 1490302134.440441, -0.070496, +1.423828, +0.273010, +27.526855, +6.515503, +76.309204
1490302134.440711, 1490302134.443125, -0.070496, +1.423828, +0.273010, +27.526855, +6.515503, +76.309204
1490302134.443396, 1490302134.445777, -0.070496, +1.423828, +0.259094, +28.213501, -0.305176, +80.123901
1490302134.446043, 1490302134.448333, -0.047974, +1.551270, +0.259094, +28.213501, -0.305176, +80.123901
1490302134.448598, 1490302134.450892, -0.047974, +1.551270, +0.259094, +28.213501, -7.797241, +81.680298
1490302134.451157, 1490302134.453444, -0.047974, +1.551270, +0.259094, +29.266357, -7.797241, +81.680298
1490302134.453709, 1490302134.456113, -0.047974, +1.620667, +0.277039, +29.266357, -7.797241, +84.884644
1490302134.456384, 1490302134.458792, +0.074890, +1.620667, +0.277039, +27.725220, -13.900757, +84.884644
1490302134.459066, 1490302134.461471, +0.074890, +1.620667, +0.277039, +27.725220, -13.900757, +87.646484
1490302134.461854, 1490302134.464265, +0.074890, +1.620667, +0.277039, +27.938843, -21.148682, +87.646484
1490302134.464549, 1490302134.466963, +0.263855, +1.721558, +0.337463, +27.938843, -21.148682, +91.552734
1490302134.467238, 1490302134.469652, +0.263855, +1.721558, +0.337463, +27.465820, -30.654907, +91.567993
1490302134.469924, 1490302134.472336, +0.263855, +1.721558, +0.337463, +27.465820, -30.654907, +95.474243
1490302134.472609, 1490302134.475064, +0.263855, +1.721558, +0.354675, +28.579712, -38.970947, +94.787598
1490302134.475338, 1490302134.477760, +0.403381, +1.788757, +0.354675, +28.579712, -38.970947, +94.787598
1490302134.478032, 1490302134.480451, +0.403381, +1.788757, +0.354675, +29.174805, -48.156738, +98.617554
1490302134.480724, 1490302134.483138, +0.403381, +1.788757, +0.354675, +29.174805, -48.156738, +98.617554
1490302134.483412, 1490302134.485835, +0.475708, +1.832336, +0.296448, +31.600952, -57.403564, +101.333618
1490302134.486108, 1490302134.488522, +0.475708, +1.832336, +0.296448, +31.600952, -57.403564, +101.333618
1490302134.488796, 1490302134.491216, +0.475708, +1.832336, +0.296448, +34.057617, -66.101074, +105.514526
1490302134.491488, 1490302134.493908, +0.475708, +1.832336, +0.296448, +34.057617, -66.101074, +105.514526
1490302134.494182, 1490302134.496541, +0.541260, +1.825378, +0.260376, +35.842896, -73.654175, +109.863281
1490302134.496808, 1490302134.499100, +0.541260, +1.825378, +0.260376, +35.842896, -73.654175, +109.863281
1490302134.499366, 1490302134.501653, +0.541260, +1.825378, +0.260376, +36.727905, -78.704834, +115.722656
1490302134.501920, 1490302134.504209, +0.541260, +1.825378, +0.230713, +36.727905, -78.704834, +115.722656
1490302134.504458, 1490302134.506748, +0.466187, +1.849182, +0.230713, +39.718628, -81.329346, +118.957520
1490302134.507015, 1490302134.509302, +0.466187, +1.849182, +0.230713, +39.718628, -81.329346, +118.957520
1490302134.509567, 1490302134.511857, +0.466187, +1.849182, +0.230713, +39.718628, -80.795288, +120.574951
1490302134.512123, 1490302134.514452, +0.466187, +1.788940, +0.241699, +41.259766, -80.795288, +120.574951
1490302134.514727, 1490302134.517146, +0.264404, +1.788940, +0.241699, +41.259766, -80.795288, +120.956421
1490302134.517418, 1490302134.519834, +0.264404, +1.788940, +0.241699, +43.533325, -75.637817, +120.956421
1490302134.520107, 1490302134.522525, +0.264404, +1.788940, +0.241699, +43.533325, -75.637817, +122.619629
1490302134.522799, 1490302134.525244, +0.189514, +1.700684, +0.255981, +42.694092, -66.696167, +122.619629
1490302134.525518, 1490302134.527929, +0.189514, +1.700684, +0.255981, +42.694092, -66.696167, +122.619629
1490302134.528203, 1490302134.530617, +0.189514, +1.700684, +0.255981, +44.509888, -56.915283, +123.413086
1490302134.530889, 1490302134.533300, +0.189514, +1.700684, +0.209106, +44.509888, -56.915283, +123.413086
1490302134.533574, 1490302134.536031, +0.201965, +1.671936, +0.234009, +46.478271, -50.125122, +124.130249
1490302134.536305, 1490302134.538718, +0.201965, +1.671936, +0.234009, +46.478271, -50.125122, +124.130249
1490302134.538992, 1490302134.541405, +0.201965, +1.671936, +0.234009, +47.225952, -46.920776, +123.123169
1490302134.541678, 1490302134.544090, +0.179993, +1.614807, +0.159302, +47.225952, -46.920776, +123.123169
1490302134.544363, 1490302134.546782, +0.179993, +1.614807, +0.159302, +46.646118, -44.265747, +122.467041
1490302134.547055, 1490302134.549472, +0.179993, +1.614807, +0.159302, +46.646118, -44.265747, +122.467041
1490302134.549746, 1490302134.552155, +0.179993, +1.614807, +0.159302, +47.714233, -41.351318, +120.407104
1490302134.552430, 1490302134.554832, +0.153076, +1.507874, +0.154907, +47.714233, -41.351318, +120.407104
1490302134.555098, 1490302134.557390, +0.153076, +1.507874, +0.154907, +47.103882, -37.948608, +119.873047
1490302134.557656, 1490302134.559946, +0.153076, +1.507874, +0.154907, +47.103882, -37.948608, +119.873047
1490302134.560212, 1490302134.562501, +0.153076, +1.507874, +0.108032, +46.600342, -35.217285, +117.904663
1490302134.562881, 1490302134.565260, +0.115356, +1.393982, +0.136230, +46.600342, -35.217285, +117.904663
1490302134.565534, 1490302134.567946, +0.115356, +1.393982, +0.136230, +44.555664, -31.387329, +116.577148
1490302134.568219, 1490302134.570625, +0.115356, +1.393982, +0.136230, +44.555664, -31.387329, +116.577148
1490302134.570900, 1490302134.573311, +0.091003, +1.290344, +0.137146, +43.106079, -27.282715, +113.723755
1490302134.573586, 1490302134.576044, +0.091003, +1.290344, +0.137146, +43.106079, -27.282715, +113.723755
1490302134.576318, 1490302134.578733, +0.091003, +1.290344, +0.137146, +40.985107, -23.239136, +110.870361
1490302134.579007, 1490302134.581418, +0.091003, +1.290344, +0.137146, +40.985107, -23.239136, +110.870361
1490302134.581690, 1490302134.584107, +0.079102, +1.181946, +0.118469, +40.985107, -18.920898, +106.628418
1490302134.584382, 1490302134.586837, +0.079102, +1.181946, +0.118469, +39.932251, -18.920898, +106.628418
1490302134.587111, 1490302134.589524, +0.079102, +1.181946, +0.118469, +39.932251, -13.031006, +103.164673
1490302134.589798, 1490302134.592212, +0.079102, +1.041321, +0.117371, +37.521362, -13.031006, +103.164673
1490302134.592485, 1490302134.594914, +0.056946, +1.045715, +0.117371, +37.521362, -5.218506, +98.724365
1490302134.595185, 1490302134.597599, +0.056946, +1.045715, +0.117371, +35.980225, -3.921509, +98.724365
1490302134.597871, 1490302134.600284, +0.056946, +1.045715, +0.117371, +35.980225, -3.921509, +95.153809
1490302134.600556, 1490302134.602969, +0.072327, +0.939880, +0.088989, +33.828735, +4.852295, +95.153809
1490302134.603241, 1490302134.605624, +0.072327, +0.939880, +0.088989, +33.828735, +4.852295, +91.964722
1490302134.605889, 1490302134.608179, +0.072327, +0.939880, +0.088989, +31.524658, +12.985229, +91.964722
1490302134.608446, 1490302134.610738, +0.072327, +0.939880, +0.088989, +31.524658, +12.985229, +91.964722
1490302134.611004, 1490302134.613295, +0.045044, +0.857849, +0.047058, +28.839111, +19.149780, +89.416504
1490302134.613562, 1490302134.615947, +0.045044, +0.857849, +0.047058, +28.839111, +19.149780, +89.416504
1490302134.616222, 1490302134.618642, +0.045044, +0.857849, +0.047058, +26.840210, +26.199341, +85.556030
1490302134.618916, 1490302134.621330, +0.045044, +0.764099, +0.023987, +26.840210, +26.199341, +85.556030
1490302134.621604, 1490302134.624021, +0.006042, +0.758057, +0.023987, +22.949219, +34.469604, +82.382202
1490302134.624297, 1490302134.626717, +0.006042, +0.758057, +0.023987, +22.949219, +34.469604, +82.382202
1490302134.626990, 1490302134.629399, +0.006042, +0.758057, +0.023987, +19.943237, +42.907715, +77.392578
1490302134.629673, 1490302134.632079, +0.017395, +0.692322, +0.018311, +19.943237, +42.907715, +77.392578
1490302134.632354, 1490302134.634772, +0.017395, +0.692322, +0.018311, +16.891479, +50.582886, +72.692871
1490302134.635047, 1490302134.637460, +0.017395, +0.692322, +0.018311, +16.891479, +50.582886, +72.692871
1490302134.637732, 1490302134.640142, +0.017395, +0.692322, +0.018311, +15.853882, +55.404663, +66.909790
1490302134.640416, 1490302134.642824, +0.018494, +0.668884, -0.018311, +15.853882, +55.404663, +66.909790
1490302134.643097, 1490302134.645523, +0.018494, +0.668884, -0.018311, +14.160156, +59.555054, +61.676025
1490302134.645797, 1490302134.648208, +0.018494, +0.668884, -0.018311, +14.160156, +59.555054, +61.676025
1490302134.648483, 1490302134.650896, +0.018494, +0.633545, -0.028748, +14.007568, +65.155029, +55.877686
1490302134.651171, 1490302134.653579, -0.015564, +0.633545, -0.028748, +14.007568, +65.155029, +55.877686
1490302134.653855, 1490302134.656194, -0.015564, +0.633545, -0.028748, +14.007568, +70.922852, +50.323486
1490302134.656460, 1490302134.658749, -0.015564, +0.633545, -0.028748, +12.283325, +70.922852, +50.323486
1490302134.659015, 1490302134.661307, -0.016113, +0.600403, -0.026184, +12.283325, +74.829102, +44.006348
1490302134.661574, 1490302134.663864, -0.016113, +0.600403, -0.026184, +10.726929, +75.897217, +44.006348
1490302134.664130, 1490302134.666552, -0.016113, +0.600403, -0.026184, +10.726929, +75.897217, +36.193848
1490302134.666935, 1490302134.669347, -0.016113, +0.600403, -0.026184, +8.407593, +77.590942, +37.826538
1490302134.669618, 1490302134.672032, -0.027100, +0.498230, -0.030029, +8.407593, +77.590942, +33.920288
1490302134.672305, 1490302134.674725, -0.027100, +0.498230, -0.030029, +7.415771, +78.674316, +31.890869
1490302134.674998, 1490302134.677412, -0.027100, +0.498230, -0.030029, +7.415771, +78.674316, +31.890869
1490302134.677682, 1490302134.680096, -0.027100, +0.386169, -0.041199, +5.493164, +78.475952, +26.214600
1490302134.680368, 1490302134.682782, -0.057312, +0.386169, -0.041199, +5.493164, +78.475952, +26.214600
1490302134.683054, 1490302134.685481, -0.057312, +0.386169, -0.041199, +4.867554, +77.636719, +20.111084
1490302134.685753, 1490302134.688167, -0.057312, +0.386169, -0.041199, +4.867554, +77.636719, +20.111084
1490302134.688438, 1490302134.690854, -0.124512, +0.305420, -0.046875, +3.250122, +77.194214, +14.007568
1490302134.691126, 1490302134.693540, -0.124512, +0.305420, -0.046875, +3.250122, +77.194214, +14.007568
1490302134.693815, 1490302134.696242, -0.124512, +0.305420, -0.046875, +2.441406, +78.674316, +7.690430
1490302134.696512, 1490302134.698925, -0.124512, +0.305420, -0.046875, +2.441406, +78.674316, +7.690430
1490302134.699197, 1490302134.701607, -0.153076, +0.275391, -0.037720, +1.358032, +79.696655, +1.495361
1490302134.701876, 1490302134.704287, -0.153076, +0.275391, -0.037720, +1.358032, +79.696655, +1.495361
1490302134.704565, 1490302134.706862, -0.153076, +0.275391, -0.037720, +0.778198, +80.551147, -5.081177
1490302134.707123, 1490302134.709412, -0.059326, +0.262390, -0.007141, +0.778198, +80.551147, -5.081177
1490302134.709674, 1490302134.711966, -0.093384, +0.262390, -0.007141, -0.076294, +79.696655, -10.910034
1490302134.712231, 1490302134.714539, -0.093384, +0.262390, -0.007141, -0.076294, +79.696655, -10.910034
1490302134.714814, 1490302134.717229, -0.093384, +0.262390, -0.007141, +3.829956, +76.873779, -17.730713
1490302134.717502, 1490302134.719911, -0.021240, +0.241333, +0.005493, +0.671387, +76.873779, -17.730713
1490302134.720185, 1490302134.722599, -0.021240, +0.241333, +0.005493, +0.671387, +73.425293, -23.330688
1490302134.722870, 1490302134.725298, -0.021240, +0.241333, +0.005493, +0.457764, +73.425293, -23.330688
1490302134.725569, 1490302134.727982, -0.021240, +0.241333, +0.005493, +0.457764, +73.425293, -29.678345
1490302134.728255, 1490302134.730668, +0.039734, +0.210754, +0.031311, +1.388550, +70.327759, -29.678345
1490302134.730939, 1490302134.733353, +0.039734, +0.210754, +0.031311, +1.388550, +70.327759, -34.881592
1490302134.733625, 1490302134.736056, +0.039734, +0.210754, +0.031311, +1.159668, +66.604614, -34.881592
1490302134.736330, 1490302134.738748, +0.086609, +0.135681, +0.037720, +1.159668, +66.604614, -41.671753
1490302134.739020, 1490302134.741436, +0.056213, +0.135681, +0.037720, +1.586914, +62.210083, -41.671753
1490302134.741706, 1490302134.744122, +0.056213, +0.135681, +0.037720, +1.586914, +62.210083, -49.484253
1490302134.744430, 1490302134.746847, +0.056213, +0.135681, +0.037720, +0.885010, +58.090210, -48.065186
1490302134.747118, 1490302134.749536, +0.008423, +0.062988, +0.035522, +0.885010, +58.090210, -55.877686
1490302134.749807, 1490302134.752223, +0.008423, +0.062988, +0.035522, +0.656128, +55.755615, -55.862427
1490302134.752497, 1490302134.754906, +0.008423, +0.062988, +0.035522, +0.656128, +55.755615, -55.862427
1490302134.755170, 1490302134.757459, +0.008423, +0.062988, +0.034058, +0.457764, +54.763794, -62.179565
1490302134.757724, 1490302134.760015, -0.060425, -0.003845, +0.034058, +0.457764, +54.763794, -62.179565
1490302134.760279, 1490302134.762571, -0.060425, -0.003845, +0.034058, +0.976562, +53.771973, -69.366455
1490302134.762837, 1490302134.765133, -0.060425, -0.003845, +0.034058, +0.976562, +53.771973, -69.366455
1490302134.765398, 1490302134.767689, -0.060425, -0.069763, -0.007690, +1.220703, +52.291870, -75.241089
1490302134.767955, 1490302134.770245, -0.085693, -0.069763, -0.007690, +1.220703, +52.291870, -75.241089
1490302134.770617, 1490302134.772902, -0.085693, -0.069763, -0.007690, +1.831055, +49.468994, -81.817627
1490302134.773168, 1490302134.775523, -0.085693, -0.069763, -0.007690, +1.831055, +49.468994, -81.817627
1490302134.775795, 1490302134.778210, -0.067932, -0.091187, -0.020142, +1.831055, +47.378540, -86.227417
1490302134.778482, 1490302134.780893, -0.067932, -0.091187, -0.020142, +1.464844, +47.378540, -86.227417
1490302134.781164, 1490302134.783579, -0.067932, -0.091187, -0.020142, +1.464844, +43.945312, -92.193604
1490302134.783849, 1490302134.786276, -0.067932, -0.091187, -0.020142, +1.541138, +43.945312, -92.193604
1490302134.786548, 1490302134.788961, -0.060425, -0.029663, -0.050903, +1.541138, +40.039062, -97.366333
1490302134.789233, 1490302134.791651, -0.060425, -0.029663, -0.050903, +2.304077, +40.420532, -97.366333
1490302134.791921, 1490302134.794336, -0.060425, -0.029663, -0.050903, +2.304077, +40.420532, -102.294922
1490302134.794659, 1490302134.797072, -0.060425, +0.013916, -0.016479, +0.885010, +39.306641, -102.294922
1490302134.797345, 1490302134.799756, -0.046692, +0.013916, -0.016479, +0.885010, +39.306641, -107.894897
1490302134.800028, 1490302134.802442, -0.046692, +0.013916, -0.016479, +0.991821, +41.915894, -107.894897
1490302134.802715, 1490302134.805136, -0.046692, +0.013916, -0.016479, +0.991821, +41.915894, -111.801147
1490302134.805408, 1490302134.807822, +0.053284, +0.030029, +0.000916, +1.373291, +44.342041, -110.794067
1490302134.808095, 1490302134.810509, +0.053284, +0.030029, +0.000916, +1.373291, +44.342041, -114.700317
1490302134.810783, 1490302134.813195, +0.053284, +0.030029, +0.000916, +1.571655, +41.687012, -115.325928
1490302134.813467, 1490302134.815823, +0.053284, +0.030029, -0.003662, +1.571655, +41.687012, -115.325928
1490302134.816088, 1490302134.818380, +0.141907, +0.025818, -0.003662, +3.234863, +37.796021, -121.002197
1490302134.818646, 1490302134.820934, +0.141907, +0.025818, -0.003662, +3.234863, +37.796021, -121.002197
1490302134.821199, 1490302134.823488, +0.141907, +0.025818, -0.003662, +3.265381, +35.736084, -125.244141
1490302134.823753, 1490302134.826138, +0.141907, +0.034424, +0.002563, +3.265381, +35.736084, -125.244141
1490302134.826408, 1490302134.828807, +0.119568, +0.034424, +0.002563, +4.013062, +33.737183, -130.935669
1490302134.829078, 1490302134.831478, +0.119568, +0.034424, +0.002563, +4.013062, +33.737183, -130.935669
1490302134.831749, 1490302134.834148, +0.119568, +0.034424, +0.002563, +4.699707, +31.463623, -134.475708
1490302134.834428, 1490302134.836827, +0.089539, +0.044495, -0.051453, +4.699707, +31.463623, -134.475708
1490302134.837097, 1490302134.839496, +0.089539, +0.044495, -0.051453, +5.935669, +27.908325, -138.351440
1490302134.839765, 1490302134.842166, +0.089539, +0.044495, -0.051453, +5.935669, +27.908325, -138.351440
1490302134.842436, 1490302134.844844, +0.089539, +0.044495, -0.098328, +6.622314, +27.008057, -139.755249
1490302134.845116, 1490302134.847517, +0.062805, +0.057312, -0.101624, +6.622314, +27.008057, -139.755249
1490302134.847788, 1490302134.850183, +0.062805, +0.057312, -0.101624, +6.622314, +27.435303, -140.625000
1490302134.850457, 1490302134.852870, +0.062805, +0.057312, -0.101624, +5.722046, +27.435303, -140.625000
1490302134.853145, 1490302134.855551, +0.062805, +0.085510, -0.162598, +5.722046, +29.129028, -141.128540
1490302134.855823, 1490302134.858208, +0.066101, +0.085510, -0.162598, +6.805420, +29.129028, -141.128540
1490302134.858479, 1490302134.860862, +0.066101, +0.085510, -0.162598, +6.805420, +29.129028, -140.609741
1490302134.861133, 1490302134.863514, +0.066101, +0.085510, -0.162598, +6.286621, +31.433105, -140.609741
1490302134.863785, 1490302134.866168, +0.072510, +0.117920, -0.207458, +6.286621, +31.433105, -140.838623
1490302134.866434, 1490302134.868725, +0.072510, +0.117920, -0.207458, +6.500244, +35.583496, -140.838623
1490302134.868990, 1490302134.871281, +0.072510, +0.117920, -0.207458, +6.500244, +35.583496, -140.838623
1490302134.871647, 1490302134.873939, +0.072510, +0.117920, -0.207458, +6.011963, +43.380737, -138.992310
1490302134.874204, 1490302134.876531, +0.069763, +0.190796, -0.242798, +6.011963, +43.380737, -138.992310
1490302134.876795, 1490302134.879079, +0.069763, +0.190796, -0.242798, +6.210327, +53.298950, -138.031006
1490302134.879344, 1490302134.881632, +0.069763, +0.190796, -0.242798, +6.210327, +53.298950, -138.031006
1490302134.881896, 1490302134.884182, +0.069763, +0.237671, -0.247742, +5.493164, +63.949585, -135.635376
1490302134.884461, 1490302134.886889, +0.131287, +0.263306, -0.247742, +5.493164, +63.949585, -135.635376
1490302134.887160, 1490302134.889576, +0.131287, +0.263306, -0.247742, +5.920410, +76.202393, -134.048462
1490302134.889847, 1490302134.892265, +0.131287, +0.263306, -0.247742, +5.920410, +76.202393, -134.048462
1490302134.892536, 1490302134.894954, +0.167175, +0.339478, -0.211670, +6.057739, +89.279175, -131.927490
1490302134.895227, 1490302134.897643, +0.167175, +0.339478, -0.211670, +6.057739, +89.279175, -131.927490
1490302134.897915, 1490302134.900330, +0.167175, +0.339478, -0.211670, +7.095337, +103.210449, -130.218506
1490302134.900603, 1490302134.903015, +0.167175, +0.339478, -0.211670, +7.095337, +103.210449, -130.218506
1490302134.903287, 1490302134.905710, +0.195190, +0.456299, -0.137695, +7.095337, +116.134644, -129.089355
1490302134.905982, 1490302134.908396, +0.195190, +0.456299, -0.137695, +7.644653, +116.134644, -129.089355
1490302134.908668, 1490302134.911078, +0.195190, +0.456299, -0.137695, +7.644653, +127.075195, -127.304077
1490302134.911350, 1490302134.913765, +0.195190, +0.563049, -0.056396, +9.841919, +127.075195, -127.304077
1490302134.914037, 1490302134.916360, +0.262756, +0.563049, -0.056396, +9.841919, +134.887695, -126.480103
1490302134.916627, 1490302134.918914, +0.262756, +0.563049, -0.056396, +12.390137, +133.941650, -126.480103
1490302134.919180, 1490302134.921471, +0.262756, +0.563049, -0.056396, +12.390137, +133.941650, -126.480103
1490302134.921737, 1490302134.924028, +0.368774, +0.589783, +0.019409, +14.389038, +136.489868, -125.396729
1490302134.924293, 1490302134.926699, +0.368774, +0.589783, +0.019409, +14.389038, +136.489868, -125.396729
1490302134.926971, 1490302134.929372, +0.368774, +0.589783, +0.019409, +17.929077, +135.147095, -124.969482
1490302134.929645, 1490302134.932046, +0.368774, +0.589783, +0.019409, +17.929077, +135.147095, -124.969482
1490302134.932320, 1490302134.934724, +0.455383, +0.557739, +0.121948, +20.416260, +130.950928, -123.977661
1490302134.934997, 1490302134.937395, +0.455383, +0.557739, +0.121948, +20.416260, +130.950928, -123.977661
1490302134.937668, 1490302134.940063, +0.455383, +0.557739, +0.121948, +23.010254, +125.167847, -123.672485
1490302134.940336, 1490302134.942731, +0.455383, +0.557739, +0.215698, +23.010254, +125.167847, -123.672485
1490302134.943004, 1490302134.945436, +0.525879, +0.559937, +0.215698, +24.642944, +115.966797, -123.245239
1490302134.945708, 1490302134.948085, +0.525879, +0.559937, +0.215698, +24.642944, +115.966797, -123.245239
1490302134.948358, 1490302134.950761, +0.525879, +0.559937, +0.215698, +28.060913, +103.866577, -123.916626
1490302134.951036, 1490302134.953449, +0.531921, +0.571289, +0.260193, +28.060913, +103.866577, -123.916626
1490302134.953721, 1490302134.956151, +0.531921, +0.571289, +0.260193, +30.624390, +90.454102, -124.328613
1490302134.956425, 1490302134.958841, +0.531921, +0.571289, +0.260193, +30.624390, +90.454102, -124.328613
1490302134.959115, 1490302134.961531, +0.531921, +0.571289, +0.260193, +32.897949, +78.018188, -123.977661
1490302134.961804, 1490302134.964217, +0.452454, +0.584473, +0.265686, +32.897949, +78.018188, -123.977661
1490302134.964501, 1490302134.966789, +0.452454, +0.584473, +0.265686, +33.615112, +65.948486, -124.969482
1490302134.967057, 1490302134.969341, +0.452454, +0.584473, +0.265686, +33.615112, +65.948486, -124.969482
1490302134.969608, 1490302134.971899, +0.452454, +0.584473, +0.254333, +33.615112, +58.135986, -124.343872
1490302134.972164, 1490302134.974501, +0.349731, +0.607727, +0.254333, +34.484863, +57.769775, -124.343872
1490302134.974880, 1490302134.977297, +0.349731, +0.607727, +0.254333, +34.484863, +57.769775, -124.542236
1490302134.977570, 1490302134.979988, +0.349731, +0.607727, +0.254333, +34.072876, +50.781250, -124.542236
1490302134.980261, 1490302134.982677, +0.294617, +0.648193, +0.223572, +34.072876, +50.781250, -123.977661
1490302134.982951, 1490302134.985363, +0.294617, +0.648193, +0.223572, +33.676147, +46.203613, -123.977661
1490302134.985639, 1490302134.988052, +0.294617, +0.648193, +0.223572, +33.676147, +46.203613, -123.977661
1490302134.988326, 1490302134.990736, +0.294617, +0.648193, +0.223572, +33.859253, +41.656494, -124.588013
1490302134.991010, 1490302134.993424, +0.250122, +0.656433, +0.212952, +33.859253, +41.656494, -124.588013
1490302134.993699, 1490302134.996118, +0.250122, +0.656433, +0.212952, +32.104492, +38.665771, -124.694824
1490302134.996391, 1490302134.998805, +0.250122, +0.656433, +0.212952, +32.104492, +38.665771, -124.694824
1490302134.999079, 1490302135.001487, +0.250122, +1.053955, +1.868042, +8.071899, +42.999268, -125.259399
1490302135.001759, 1490302135.004172, +1.630554, +1.053955, +1.868042, +8.071899, +42.999268, -125.259399
1490302135.004450, 1490302135.006740, +1.630554, +1.053955, +1.868042, -36.483765, -13.488770, -118.774414
1490302135.007003, 1490302135.009286, +1.630554, +1.053955, +1.868042, -36.483765, -13.488770, -118.774414
1490302135.009550, 1490302135.011836, +5.458740, +2.616028, +5.361145, -72.570801, -225.234985, -124.908447
1490302135.012101, 1490302135.014453, +5.458740, +2.616028, +5.361145, -72.570801, -225.234985, -124.908447
1490302135.014718, 1490302135.017014, +5.458740, +2.616028, +5.361145, +1.754761, -260.772705, -29.022217
1490302135.017274, 1490302135.019561, +5.458740, +2.616028, +5.361145, +1.754761, -260.772705, -29.022217
1490302135.019821, 1490302135.022112, +4.575073, +5.998535, -1.823181, +189.254761, +326.507568, +98.800659
1490302135.022375, 1490302135.024676, +4.575073, +5.998535, -1.823181, +189.559937, +326.507568, +98.800659
1490302135.024941, 1490302135.027230, +4.575073, +5.998535, -1.823181, +189.559937, +213.226318, +46.356201
1490302135.027494, 1490302135.029775, +4.575073, +5.998535, -1.823181, +186.431885, +211.517334, +46.356201
1490302135.030039, 1490302135.032321, -3.703857, +3.428650, -2.551208, +186.431885, +211.517334, +89.324951
1490302135.032584, 1490302135.034906, -3.703857, +3.428650, -2.551208, +37.094116, -11.734009, +87.341309
1490302135.035176, 1490302135.037594, -3.703857, +3.428650, -2.551208, +37.094116, -11.734009, +87.341309
1490302135.037867, 1490302135.040280, -3.703857, -2.243225, -1.242920, -46.630859, -119.903564, +64.758301
1490302135.040550, 1490302135.042961, -2.953491, -2.220154, -1.242920, -46.630859, -119.903564, +64.758301
1490302135.043230, 1490302135.045655, -2.953491, -2.220154, -1.242920, -3.280640, -167.434692, +22.277832
1490302135.045923, 1490302135.048333, -2.953491, -2.220154, -1.242920, -3.280640, -167.434692, +22.277832
1490302135.048599, 1490302135.051013, -2.250549, -0.606995, +0.058594, -8.651733, -118.453979, +14.434814
1490302135.051286, 1490302135.053703, -2.250549, -0.606995, +0.058594, -8.651733, -118.453979, +14.434814
1490302135.053976, 1490302135.056436, -2.250549, -0.606995, +0.058594, -19.668579, -68.069458, +22.766113
1490302135.056709, 1490302135.059124, -2.250549, -0.606995, +0.808594, -19.668579, -68.069458, +22.766113
1490302135.059398, 1490302135.061813, -1.086914, +1.180298, +0.825806, -27.954102, -6.240845, +34.591675
1490302135.062082, 1490302135.064509, -1.086914, +1.180298, +0.825806, -27.954102, -6.240845, +34.591675
1490302135.064780, 1490302135.067197, -1.086914, +1.180298, +0.825806, -7.263184, +14.556885, +43.685913
1490302135.067467, 1490302135.069879, +0.178711, +1.664246, +1.114746, -7.263184, +14.556885, +43.685913
1490302135.070147, 1490302135.072560, +0.152710, +1.664246, +1.114746, +20.828247, +5.340576, +49.850464
1490302135.072829, 1490302135.075212, +0.152710, +1.664246, +1.114746, +20.828247, +5.340576, +49.850464
1490302135.075591, 1490302135.077885, +0.152710, +1.664246, +1.114746, +18.051147, +24.841309, +48.889160
1490302135.078151, 1490302135.080443, +0.512329, +0.481018, +0.579346, +18.051147, +24.841309, +48.889160
1490302135.080709, 1490302135.082998, +0.512329, +0.481018, +0.579346, -1.480103, +46.417236, +47.988892
1490302135.083261, 1490302135.085660, +0.512329, +0.481018, +0.579346, -2.487183, +46.417236, +47.988892
1490302135.085932, 1490302135.088345, +0.512329, +0.481018, +0.157471, -2.487183, +50.323486, +43.579102
1490302135.088617, 1490302135.091023, +0.955627, +0.546021, +0.182190, -6.866455, +47.561646, +43.579102
1490302135.091294, 1490302135.093702, +0.955627, +0.546021, +0.182190, -6.866455, +47.561646, +39.337158
1490302135.093974, 1490302135.096433, +0.955627, +0.546021, +0.182190, +4.653931, +32.241821, +39.337158
1490302135.096704, 1490302135.099115, +0.768127, +1.052124, -0.303955, +4.653931, +32.241821, +32.775879
1490302135.099386, 1490302135.101798, +0.784973, +1.052124, -0.303955, +17.364502, +5.935669, +32.775879
1490302135.102069, 1490302135.104493, +0.784973, +1.052124, -0.303955, +17.364502, +5.935669, +28.869629
1490302135.104765, 1490302135.107185, +0.784973, +1.052124, -0.303955, +21.240234, -21.453857, +28.854370
1490302135.107459, 1490302135.109876, +0.127625, +1.058167, -0.332703, +21.240234, -21.453857, +21.041870
1490302135.110148, 1490302135.112559, +0.127625, +1.058167, -0.332703, +19.485474, -34.301758, +22.888184
1490302135.112834, 1490302135.115263, +0.127625, +1.058167, -0.332703, +19.485474, -34.301758, +22.888184
1490302135.115536, 1490302135.117950, +0.127625, +1.058167, -0.145203, +16.174316, -27.420044, +21.072388
1490302135.118222, 1490302135.120635, -0.154907, +1.017883, -0.145203, +16.174316, -27.420044, +21.072388
1490302135.120911, 1490302135.123329, -0.154907, +1.017883, -0.145203, +14.205933, -16.357422, +20.538330
1490302135.123601, 1490302135.125993, -0.154907, +1.017883, -0.145203, +14.205933, -16.357422, +20.538330
1490302135.126259, 1490302135.128545, +0.008423, +1.096985, +0.054932, +15.502930, -8.148193, +21.331787
1490302135.128810, 1490302135.131102, +0.008423, +1.096985, +0.054932, +15.502930, -8.148193, +21.331787
1490302135.131368, 1490302135.133656, +0.008423, +1.096985, +0.054932, +16.281128, -3.204346, +22.384644
1490302135.133919, 1490302135.136219, +0.008423, +1.096985, +0.054932, +16.281128, -3.204346, +22.384644
1490302135.136484, 1490302135.138778, +0.016296, +1.067505, +0.220642, +17.822266, +0.381470, +20.660400
1490302135.139042, 1490302135.141331, +0.016296, +1.067505, +0.220642, +17.822266, +0.381470, +20.660400
1490302135.141594, 1490302135.143881, +0.016296, +1.067505, +0.220642, +17.822266, +1.342773, +19.042969
1490302135.144143, 1490302135.146680, +0.016296, +1.067505, +0.220642, +16.616821, +1.342773, +19.042969
1490302135.146955, 1490302135.149369, +0.069214, +0.942810, +0.270813, +16.616821, -1.007080, +16.250610
1490302135.149640, 1490302135.152048, +0.069214, +0.942810, +0.270813, +14.862061, -1.007080, +16.250610
1490302135.152321, 1490302135.154744, +0.069214, +0.942810, +0.270813, +14.862061, -4.913330, +15.594482
1490302135.155016, 1490302135.157432, +0.116089, +0.866821, +0.216248, +12.176514, -4.150391, +15.594482
1490302135.157703, 1490302135.160116, +0.107849, +0.866821, +0.216248, +12.176514, -4.150391, +14.389038
1490302135.160389, 1490302135.162800, +0.107849, +0.866821, +0.216248, +11.428833, -3.768921, +14.389038
1490302135.163072, 1490302135.165498, +0.107849, +0.866821, +0.216248, +11.428833, -3.768921, +13.610840
1490302135.165770, 1490302135.168183, +0.023987, +0.809326, +0.207275, +11.062622, -0.778198, +13.610840
1490302135.168455, 1490302135.170870, +0.023987, +0.809326, +0.207275, +11.062622, -0.778198, +13.610840
1490302135.171142, 1490302135.173556, +0.023987, +0.809326, +0.207275, +11.947632, +4.394531, +12.115479
1490302135.173828, 1490302135.176254, +0.023987, +0.809326, +0.201233, +11.947632, +4.394531, +12.115479
1490302135.176525, 1490302135.178937, +0.022339, +0.705872, +0.201233, +9.582520, +9.719849, +12.710571
1490302135.179316, 1490302135.181726, +0.022339, +0.705872, +0.201233, +9.582520, +9.719849, +12.710571
1490302135.181994, 1490302135.184462, +0.022339, +0.705872, +0.201233, +6.927490, +13.427734, +11.596680
1490302135.184727, 1490302135.187018, +0.125610, +0.652222, +0.165527, +6.927490, +13.427734, +11.596680
1490302135.187280, 1490302135.189572, +0.125610, +0.652222, +0.165527, +3.524780, +15.670776, +10.528564
1490302135.189834, 1490302135.192126, +0.125610, +0.652222, +0.165527, +3.524780, +15.670776, +10.528564
1490302135.192389, 1490302135.194706, +0.125610, +0.652222, +0.165527, +1.770020, +15.670776, +7.598877
1490302135.194974, 1490302135.197390, +0.243164, +0.694519, +0.069031, +1.770020, +15.670776, +7.598877
1490302135.197658, 1490302135.200069, +0.243164, +0.694519, +0.069031, +1.129150, +14.480591, +6.164551
1490302135.200340, 1490302135.202752, +0.243164, +0.694519, +0.069031, +1.129150, +14.480591, +6.164551
1490302135.203020, 1490302135.205449, +0.243164, +0.694519, -0.008057, -0.167847, +11.032104, +3.768921
1490302135.205718, 1490302135.208133, +0.234375, +0.735168, -0.008057, -0.167847, +11.032104, +3.768921
1490302135.208403, 1490302135.210816, +0.234375, +0.735168, -0.008057, +0.442505, +9.368896, +1.480103
1490302135.211083, 1490302135.213495, +0.234375, +0.735168, -0.008057, +0.442505, +9.368896, +1.480103
1490302135.213761, 1490302135.216177, +0.181458, +0.796509, -0.025818, -3.463745, +7.858276, -0.503540
1490302135.216444, 1490302135.218856, +0.181458, +0.796509, -0.025818, -0.625610, +7.858276, -0.503540
1490302135.219122, 1490302135.221535, +0.181458, +0.796509, -0.025818, -0.625610, +7.324219, -1.434326
1490302135.221799, 1490302135.224212, +0.181458, +0.796509, -0.025818, -1.556396, +7.324219, -1.434326
1490302135.224484, 1490302135.226908, +0.053284, +1.146790, -0.123962, -1.556396, +7.324219, -0.671387
1490302135.227172, 1490302135.229590, +0.053284, +1.146790, -0.123962, -1.205444, +7.095337, -0.671387
1490302135.229855, 1490302135.232272, +0.053284, +1.146790, -0.123962, -1.205444, +7.095337, +2.838135
1490302135.232537, 1490302135.234923, +0.053284, +1.474915, -0.088806, +0.122070, +6.240845, +2.838135
1490302135.235181, 1490302135.237472, -0.129272, +1.455139, -0.088806, +0.122070, +6.240845, +2.838135
1490302135.237731, 1490302135.240022, -0.129272, +1.455139, -0.088806, +1.647949, +6.362915, +3.677368
1490302135.240278, 1490302135.242573, -0.129272, +1.455139, -0.088806, +1.647949, +6.362915, +3.677368
1490302135.242828, 1490302135.245166, -0.223022, +1.379517, +0.068665, +1.480103, +7.659912, +4.028320
1490302135.245431, 1490302135.247843, -0.217346, +1.379517, +0.068665, +1.480103, +7.659912, +4.028320
1490302135.248105, 1490302135.250519, -0.217346, +1.379517, +0.068665, -0.213623, +10.131836, +4.562378
1490302135.250788, 1490302135.253205, -0.217346, +1.379517, +0.068665, -0.213623, +10.131836, +4.562378
1490302135.253473, 1490302135.255894, +0.001831, +1.158508, +0.202515, -1.449585, +11.871338, +5.859375
1490302135.256165, 1490302135.258578, +0.001831, +1.158508, +0.202515, -1.449585, +11.871338, +5.859375
1490302135.258848, 1490302135.261258, +0.001831, +1.158508, +0.202515, -1.739502, +12.390137, +5.035400
1490302135.261526, 1490302135.263941, +0.001831, +1.158508, +0.176147, -1.739502, +12.390137, +5.035400
1490302135.264209, 1490302135.266635, +0.186584, +0.933655, +0.176147, -1.647949, +11.123657, +4.470825
1490302135.266902, 1490302135.269320, +0.186584, +0.933655, +0.176147, -1.647949, +11.123657, +4.470825
1490302135.269587, 1490302135.272001, +0.186584, +0.933655, +0.176147, -0.793457, +8.392334, +2.578735
1490302135.272267, 1490302135.274692, +0.205994, +0.742126, +0.073059, -0.793457, +8.392334, +2.578735
1490302135.274957, 1490302135.277375, +0.205994, +0.742126, +0.073059, +0.640869, +6.286621, -0.320435
1490302135.277639, 1490302135.280051, +0.205994, +0.742126, +0.073059, +0.640869, +6.286621, -0.320435
1490302135.280316, 1490302135.282734, +0.205994, +0.742126, +0.073059, +0.640869, +5.722046, -3.250122
1490302135.282998, 1490302135.285411, +0.148315, +0.730957, +0.073608, +1.632690, +5.722046, -3.250122
1490302135.285781, 1490302135.288070, +0.148315, +0.730957, +0.073608, +1.632690, +6.271362, -5.844116
1490302135.288329, 1490302135.290615, +0.148315, +0.730957, +0.073608, +1.785278, +6.271362, -5.844116
1490302135.290873, 1490302135.293163, +0.148315, +0.730957, +0.210754, +1.785278, +6.271362, -6.622314
1490302135.293419, 1490302135.295828, +0.094849, +0.926514, +0.210754, +1.235962, +7.461548, -6.622314
1490302135.296092, 1490302135.298506, +0.094849, +0.926514, +0.210754, +1.235962, +7.461548, -6.622314
1490302135.298769, 1490302135.301183, +0.094849, +0.926514, +0.210754, +2.243042, +7.415771, -6.240845
1490302135.301448, 1490302135.303861, +0.001648, +1.072266, +0.276672, +2.243042, +7.415771, -6.240845
1490302135.304124, 1490302135.306549, +0.001648, +1.072266, +0.276672, +5.203247, +7.705688, -7.003784
1490302135.306814, 1490302135.309224, +0.001648, +1.072266, +0.276672, +5.203247, +7.705688, -7.003784
1490302135.309489, 1490302135.311903, +0.001648, +1.072266, +0.276672, +6.393433, +10.025024, -7.354736
1490302135.312171, 1490302135.314629, +0.037354, +1.158142, +0.240967, +6.393433, +10.025024, -7.354736
1490302135.314897, 1490302135.317308, +0.037354, +1.158142, +0.240967, +7.781982, +10.421753, -8.132935
1490302135.317577, 1490302135.319988, +0.037354, +1.158142, +0.240967, +7.781982, +10.421753, -8.132935
1490302135.320258, 1490302135.322664, +0.037354, +1.158142, +0.182922, +8.850098, +8.850098, -7.904053
1490302135.322929, 1490302135.325351, +0.049988, +1.166199, +0.182922, +8.850098, +8.850098, -7.904053
1490302135.325615, 1490302135.328032, +0.049988, +1.166199, +0.182922, +11.367798, +9.216309, -10.879517
1490302135.328303, 1490302135.330715, +0.049988, +1.166199, +0.182922, +11.367798, +9.216309, -10.879517
1490302135.330985, 1490302135.333401, +0.086060, +1.096069, +0.161316, +13.702393, +11.291504, -11.947632
1490302135.333676, 1490302135.336024, +0.086060, +1.096069, +0.161316, +13.702393, +11.291504, -11.947632
1490302135.336292, 1490302135.338582, +0.086060, +1.096069, +0.161316, +15.151978, +12.542725, -13.778687
1490302135.338848, 1490302135.341142, +0.086060, +1.096069, +0.161316, +15.151978, +12.542725, -13.778687
1490302135.341408, 1490302135.343694, +0.091370, +0.983276, +0.195190, +16.326904, +14.297485, -14.907837
1490302135.343961, 1490302135.346361, +0.091370, +0.983276, +0.195190, +16.326904, +14.297485, -14.907837
1490302135.346637, 1490302135.349051, +0.091370, +0.983276, +0.195190, +16.326904, +14.343262, -16.342163
1490302135.349325, 1490302135.351742, +0.091370, +0.983276, +0.233276, +16.952515, +14.343262, -16.342163
1490302135.352015, 1490302135.354440, +0.080566, +0.932739, +0.233276, +16.952515, +14.343262, -18.676758
1490302135.354715, 1490302135.357133, +0.080566, +0.932739, +0.233276, +18.432617, +15.396118, -18.676758
1490302135.357407, 1490302135.359818, +0.080566, +0.932739, +0.233276, +18.432617, +15.396118, -20.919800
1490302135.360093, 1490302135.362508, +0.079651, +0.953247, +0.215149, +18.676758, +16.036987, -20.919800
1490302135.362782, 1490302135.365242, +0.079651, +0.953247, +0.215149, +18.676758, +16.036987, -21.057129
1490302135.365516, 1490302135.367929, +0.079651, +0.953247, +0.215149, +18.524170, +16.677856, -21.057129
1490302135.368204, 1490302135.370617, +0.079651, +0.953247, +0.215149, +18.524170, +16.677856, -22.430420
1490302135.370890, 1490302135.373304, +0.116089, +0.976501, +0.112793, +17.257690, +16.693115, -22.430420
1490302135.373578, 1490302135.376057, +0.116089, +0.976501, +0.112793, +17.257690, +16.693115, -26.336670
1490302135.376334, 1490302135.378751, +0.116089, +0.976501, +0.112793, +16.021729, +17.059326, -23.849487
1490302135.379025, 1490302135.381434, +0.116089, +1.023743, +0.093567, +16.021729, +17.059326, -23.849487
1490302135.381707, 1490302135.384126, +0.101440, +1.023743, +0.093567, +15.350342, +16.952515, -26.626587
1490302135.384435, 1490302135.386754, +0.101440, +1.023743, +0.093567, +15.350342, +16.952515, -26.626587
1490302135.387021, 1490302135.389308, +0.101440, +1.023743, +0.093567, +15.243530, +17.776489, -27.679443
1490302135.389684, 1490302135.391975, +0.089355, +1.006531, +0.151428, +15.243530, +17.776489, -27.679443
1490302135.392242, 1490302135.394546, +0.089355, +1.006531, +0.151428, +14.953613, +16.647339, -29.983521
1490302135.394821, 1490302135.397240, +0.089355, +1.006531, +0.151428, +14.953613, +16.647339, -29.983521
1490302135.397515, 1490302135.399934, +0.089355, +1.006531, +0.151428, +13.732910, +15.899658, -31.387329
1490302135.400207, 1490302135.402623, +0.090088, +1.000854, +0.163696, +13.732910, +15.899658, -31.387329
1490302135.402897, 1490302135.405328, +0.090088, +1.000854, +0.163696, +12.023926, +14.038086, -34.027100
1490302135.405602, 1490302135.408022, +0.090088, +1.000854, +0.163696, +12.023926, +14.038086, -34.027100
1490302135.408295, 1490302135.410704, +0.136963, +1.007812, +0.124695, +12.939453, +13.305664, -36.102295
1490302135.410979, 1490302135.413395, +0.103821, +1.007812, +0.124695, +12.939453, +13.305664, -36.102295
1490302135.413671, 1490302135.416096, +0.103821, +1.007812, +0.124695, +11.093140, +12.039185, -37.582397
1490302135.416372, 1490302135.418791, +0.103821, +1.007812, +0.124695, +11.093140, +12.039185, -37.582397
1490302135.419065, 1490302135.421479, +0.092834, +0.969177, +0.111877, +9.735107, +11.840820, -39.978027
1490302135.421753, 1490302135.424162, +0.092834, +0.969177, +0.111877, +9.735107, +11.840820, -39.978027
1490302135.424443, 1490302135.426861, +0.092834, +0.969177, +0.111877, +5.828857, +11.505127, -40.573120
1490302135.427134, 1490302135.429548, +0.092834, +0.969177, +0.089355, +7.507324, +11.505127, -40.573120
1490302135.429819, 1490302135.432236, +0.076538, +0.990234, +0.089355, +7.507324, +10.391235, -43.258667
1490302135.432507, 1490302135.434914, +0.076538, +0.990234, +0.089355, +5.844116, +10.391235, -43.258667
1490302135.435180, 1490302135.437468, +0.076538, +0.990234, +0.089355, +5.844116, +10.391235, -43.823242
1490302135.437732, 1490302135.440020, +0.044312, +0.995911, +0.106018, +3.890991, +10.009766, -43.823242
1490302135.440286, 1490302135.442575, +0.044312, +0.995911, +0.106018, +3.890991, +10.009766, -43.823242
1490302135.442839, 1490302135.445173, +0.044312, +0.995911, +0.106018, +2.487183, +9.078979, -45.806885
1490302135.445443, 1490302135.447842, +0.044312, +0.995911, +0.106018, +2.487183, +9.078979, -45.806885
1490302135.448111, 1490302135.450510, +0.032227, +1.015869, +0.107300, +0.946045, +8.453369, -46.325684
1490302135.450781, 1490302135.453176, +0.032227, +1.015869, +0.107300, +0.946045, +8.453369, -46.325684
1490302135.453444, 1490302135.455855, +0.032227, +1.015869, +0.107300, -1.678467, +5.676270, -47.988892
1490302135.456123, 1490302135.458522, +0.032227, +1.015869, +0.107300, -1.678467, +5.676270, -47.988892
1490302135.458789, 1490302135.461193, +0.018494, +0.992981, +0.122131, -3.067017, +3.295898, -48.828125
1490302135.461461, 1490302135.463856, +0.018494, +0.992981, +0.122131, -3.067017, +3.295898, -48.828125
1490302135.464125, 1490302135.466533, +0.018494, +0.992981, +0.122131, -5.050659, +1.541138, -50.399780
1490302135.466802, 1490302135.469196, +0.112244, +0.997375, +0.116638, -5.050659, +1.541138, -50.399780
1490302135.469462, 1490302135.471865, +0.107666, +0.997375, +0.116638, -6.149292, +0.610352, -50.903320
1490302135.472132, 1490302135.474539, +0.107666, +0.997375, +0.116638, -6.149292, +0.610352, -50.903320
1490302135.474828, 1490302135.478788, +0.060791, +1.035095, +0.120850, -7.369995, +0.305176, -53.405762
1490302135.479064, 1490302135.481353, +0.075256, +1.035095, +0.120850, -7.369995, +0.305176, -57.312012
1490302135.481616, 1490302135.483904, +0.075256, +1.035095, +0.120850, -7.797241, +2.120972, -55.313110
1490302135.484166, 1490302135.486457, +0.075256, +1.035095, +0.120850, -7.797241, +2.120972, -55.313110
1490302135.486720, 1490302135.489008, +0.036804, +0.986938, +0.139709, -10.208130, +1.510620, -57.067871
1490302135.489273, 1490302135.491561, +0.036804, +0.986938, +0.139709, -10.208130, +1.510620, -57.067871
1490302135.491825, 1490302135.494117, +0.036804, +0.986938, +0.139709, -10.879517, -1.708984, -57.357788
1490302135.494511, 1490302135.496802, +0.036804, +0.986938, +0.139709, -10.879517, -1.708984, -57.357788
1490302135.497066, 1490302135.499360, +0.073242, +0.976868, +0.192078, -11.291504, -5.462646, -57.983398
1490302135.499624, 1490302135.501911, +0.073242, +0.976868, +0.192078, -11.291504, -5.462646, -57.983398
1490302135.502175, 1490302135.504498, +0.073242, +0.976868, +0.192078, -8.529663, -6.240845, -59.036255
1490302135.504762, 1490302135.507046, +0.073242, +0.976868, +0.145203, -8.529663, -6.240845, -59.036255
1490302135.507309, 1490302135.509598, +0.035156, +1.013306, +0.175781, -8.529663, -6.240845, -58.731079
1490302135.509859, 1490302135.512148, +0.035156, +1.013306, +0.175781, -7.247925, -5.722046, -58.731079
1490302135.512408, 1490302135.514736, +0.035156, +1.013306, +0.175781, -7.247925, -5.722046, -58.731079
1490302135.515004, 1490302135.517425, +0.035156, +1.013306, +0.178345, -5.828857, -6.576538, -59.936523
1490302135.517694, 1490302135.520104, -0.044678, +0.985291, +0.178345, -5.828857, -6.576538, -59.936523
