timestamp_before, timestamp_after, accel_x, accel_y, accel_z, gyro_x, gyro_y, gyro_z
1490302194.263672, 1490302194.266400, -0.258911, +1.288696, +0.180542, +9.963989, +0.900269, -5.889893
1490302194.266747, 1490302194.269030, -0.258911, +1.288696, +0.180542, +9.963989, +0.900269, -5.889893
1490302194.269289, 1490302194.271574, -0.258911, +0.960571, +0.170105, +9.933472, +1.617432, -7.095337
1490302194.271831, 1490302194.274126, -0.212585, +0.962219, +0.170105, +9.933472, +1.617432, -7.095337
1490302194.274382, 1490302194.276874, -0.212585, +0.962219, +0.170105, +9.140015, +0.396729, -6.118774
1490302194.277131, 1490302194.279421, -0.212585, +0.962219, +0.170105, +9.140015, +0.396729, -6.118774
1490302194.279678, 1490302194.281965, -0.213867, +0.986572, +0.169556, +9.140015, +0.976562, -5.416870
1490302194.282223, 1490302194.284627, -0.213867, +0.986572, +0.169556, +9.384155, +0.976562, -5.416870
1490302194.284895, 1490302194.287202, -0.213867, +0.986572, +0.169556, +9.384155, +0.976562, -5.325317
1490302194.287463, 1490302194.289747, -0.213867, +0.986572, +0.169556, +8.697510, +0.640869, -5.325317
1490302194.290006, 1490302194.292288, -0.211670, +0.988403, +0.175598, +8.697510, +0.640869, -5.325317
1490302194.292547, 1490302194.294881, -0.211670, +0.988403, +0.175598, +9.780884, +0.411987, -6.057739
1490302194.295138, 1490302194.297419, -0.211670, +0.988403, +0.175598, +9.780884, +0.411987, -6.057739
1490302194.297676, 1490302194.299964, -0.211670, +0.988403, +0.175598, +9.368896, +0.823975, -4.714966
1490302194.300222, 1490302194.302503, -0.218628, +0.986206, +0.165894, +9.368896, +0.823975, -4.714966
1490302194.302761, 1490302194.305117, -0.218628, +0.986206, +0.165894, +9.460449, +0.595093, -5.447388
1490302194.305382, 1490302194.307794, -0.218628, +0.986206, +0.165894, +9.460449, +0.595093, -5.447388
1490302194.308059, 1490302194.310463, -0.218628, +0.986206, +0.179443, +9.643555, +0.900269, -5.004883
1490302194.310728, 1490302194.313131, -0.221375, +0.986755, +0.179443, +9.643555, +0.900269, -5.004883
1490302194.313396, 1490302194.315833, -0.221375, +0.986755, +0.179443, +9.445190, +0.427246, -5.203247
1490302194.316119, 1490302194.318535, -0.221375, +0.986755, +0.179443, +9.445190, +0.427246, -5.203247
1490302194.318801, 1490302194.321221, -0.236206, +0.987122, +0.169556, +9.719849, +0.854492, -5.493164
1490302194.321486, 1490302194.323898, -0.236206, +0.987122, +0.169556, +9.719849, +0.854492, -5.493164
1490302194.324163, 1490302194.326490, -0.236206, +0.987122, +0.169556, +9.078979, +1.144409, -4.043579
1490302194.326748, 1490302194.329042, -0.236206, +0.987122, +0.169556, +9.078979, +1.144409, -4.043579
1490302194.329300, 1490302194.331591, -0.222473, +0.994629, +0.174683, +9.078979, +1.144409, -5.325317
1490302194.331847, 1490302194.334137, -0.222473, +0.994629, +0.174683, +9.323120, +0.869751, -5.325317
1490302194.334431, 1490302194.336727, -0.222473, +0.994629, +0.174683, +9.323120, +0.869751, -5.325317
1490302194.336985, 1490302194.339273, -0.222473, +0.994629, +0.174683, +9.857178, +1.068115, -5.386353
1490302194.339530, 1490302194.341824, -0.211121, +0.999207, +0.165710, +9.857178, +1.068115, -5.386353
1490302194.342082, 1490302194.344374, -0.211121, +0.999207, +0.165710, +9.124756, +0.579834, -4.730225
1490302194.344710, 1490302194.346999, -0.211121, +0.999207, +0.165710, +9.124756, +0.579834, -4.730225
1490302194.347259, 1490302194.349553, -0.211121, +0.990234, +0.171021, +9.521484, -0.198364, -5.920410
1490302194.349814, 1490302194.352215, -0.219360, +0.990234, +0.171021, +9.521484, -0.198364, -5.920410
1490302194.352473, 1490302194.354836, -0.219360, +0.990234, +0.171021, +10.009766, +0.427246, -6.118774
1490302194.355105, 1490302194.357517, -0.219360, +0.990234, +0.171021, +10.009766, +0.427246, -6.118774
1490302194.357787, 1490302194.360197, -0.222473, +0.988953, +0.173035, +9.811401, +0.823975, -5.249023
1490302194.360463, 1490302194.362877, -0.222473, +0.988953, +0.173035, +9.811401, +0.823975, -5.249023
1490302194.363143, 1490302194.365557, -0.222473, +0.988953, +0.173035, +8.926392, +0.473022, -4.470825
1490302194.365964, 1490302194.368374, -0.222473, +0.988953, +0.173035, +8.926392, +0.473022, -4.470825
1490302194.368640, 1490302194.371048, -0.215698, +0.992065, +0.177612, +8.850098, +0.030518, -5.325317
1490302194.371315, 1490302194.373722, -0.215698, +0.992065, +0.177612, +8.850098, +0.030518, -5.325317
1490302194.373988, 1490302194.376442, -0.215698, +0.992065, +0.177612, +9.780884, +0.289917, -6.454468
1490302194.376705, 1490302194.379118, -0.215698, +0.990967, +0.173218, +9.780884, +0.289917, -6.454468
1490302194.379383, 1490302194.381791, -0.220642, +0.990967, +0.173218, +9.780884, +0.625610, -5.737305
1490302194.382057, 1490302194.384478, -0.220642, +0.990967, +0.173218, +10.070801, +0.625610, -5.737305
1490302194.384739, 1490302194.387031, -0.220642, +0.990967, +0.173218, +10.070801, +0.625610, -5.096436
1490302194.387291, 1490302194.389574, -0.220276, +0.993713, +0.170105, +9.216309, +0.350952, -5.096436
1490302194.389832, 1490302194.392126, -0.220276, +0.993713, +0.170105, +9.216309, +0.350952, -5.096436
1490302194.392384, 1490302194.394797, -0.220276, +0.993713, +0.170105, +10.269165, +0.015259, -5.722046
1490302194.395059, 1490302194.397349, -0.220276, +0.993713, +0.170105, +10.269165, +0.015259, -5.722046
1490302194.397611, 1490302194.399902, -0.227783, +0.994263, +0.166260, +9.750366, +0.320435, -4.867554
1490302194.400160, 1490302194.402450, -0.227783, +0.994263, +0.166260, +9.750366, +0.320435, -4.867554
1490302194.402707, 1490302194.405184, -0.227783, +0.994263, +0.166260, +9.307861, +0.000000, -5.889893
1490302194.405449, 1490302194.407856, -0.227783, +0.994263, +0.171753, +9.307861, +0.000000, -5.889893
1490302194.408120, 1490302194.410528, -0.217163, +0.992065, +0.171753, +10.177612, +0.045776, -5.249023
1490302194.410799, 1490302194.413208, -0.217163, +0.992065, +0.171753, +10.177612, +0.045776, -5.249023
1490302194.413478, 1490302194.415901, -0.217163, +0.992065, +0.171753, +9.353638, -0.152588, -4.638672
1490302194.416165, 1490302194.418579, -0.227234, +0.990967, +0.164612, +9.353638, -0.152588, -4.638672
1490302194.418843, 1490302194.421257, -0.227234, +0.990967, +0.164612, +9.979248, +0.411987, -5.584717
1490302194.421521, 1490302194.423932, -0.227234, +0.990967, +0.164612, +9.979248, +0.411987, -5.584717
1490302194.424196, 1490302194.426650, -0.227234, +0.990967, +0.164612, +9.384155, +0.854492, -4.837036
1490302194.426917, 1490302194.429328, -0.227600, +0.988037, +0.180359, +9.384155, +0.854492, -4.837036
1490302194.429593, 1490302194.432006, -0.227600, +0.988037, +0.180359, +9.796143, +0.701904, -5.569458
1490302194.432272, 1490302194.434697, -0.227600, +0.988037, +0.180359, +9.796143, +0.701904, -5.569458
1490302194.434961, 1490302194.437371, -0.227600, +0.991150, +0.173767, +9.796143, +1.358032, -4.867554
1490302194.437635, 1490302194.440150, -0.215881, +0.991150, +0.173767, +9.475708, +1.358032, -4.867554
1490302194.440407, 1490302194.442708, -0.215881, +0.991150, +0.173767, +9.475708, +0.747681, -5.447388
1490302194.442968, 1490302194.445570, -0.215881, +0.991150, +0.173767, +9.460449, +0.747681, -5.447388
1490302194.445828, 1490302194.448123, -0.211121, +0.991699, +0.177429, +9.460449, +0.732422, -4.486084
1490302194.448381, 1490302194.450778, -0.211121, +0.991699, +0.177429, +9.445190, +0.732422, -4.486084
1490302194.451036, 1490302194.453330, -0.211121, +0.991699, +0.177429, +9.445190, +0.732422, -4.302979
1490302194.454327, 1490302194.456738, -0.211121, +0.992249, +0.172119, +9.262085, +0.259399, -4.302979
1490302194.457004, 1490302194.459417, -0.221741, +0.992249, +0.172119, +9.262085, +0.595093, -4.821777
1490302194.459683, 1490302194.462104, -0.221741, +0.992249, +0.172119, +9.979248, +0.595093, -4.821777
1490302194.462370, 1490302194.464841, -0.221741, +0.992249, +0.172119, +9.979248, +0.595093, -4.409790
1490302194.465106, 1490302194.467519, -0.218994, +0.991882, +0.170654, +9.567261, +0.442505, -4.409790
1490302194.467783, 1490302194.470199, -0.218994, +0.991882, +0.170654, +9.567261, +0.442505, -4.714966
1490302194.470464, 1490302194.472878, -0.218994, +0.991882, +0.170654, +10.314941, +0.244141, -4.714966
1490302194.473267, 1490302194.475697, -0.218994, +0.991882, +0.170654, +10.314941, -3.662109, -3.860474
1490302194.475963, 1490302194.478376, -0.225952, +0.998108, +0.174866, +10.162354, -0.045776, -3.860474
1490302194.478643, 1490302194.481056, -0.225952, +0.998108, +0.174866, +10.162354, -0.045776, -4.577637
1490302194.481324, 1490302194.483744, -0.225952, +0.998108, +0.174866, +10.604858, +0.122070, -4.577637
1490302194.484012, 1490302194.486331, -0.222839, +0.989685, +0.165710, +10.604858, +0.122070, -0.671387
1490302194.486595, 1490302194.488881, -0.222839, +0.989685, +0.165710, +10.681152, +0.289917, -3.738403
1490302194.489144, 1490302194.491435, -0.222839, +0.989685, +0.165710, +10.681152, +0.289917, -3.738403
1490302194.491696, 1490302194.493985, -0.222839, +0.989685, +0.165710, +9.841919, -0.366211, -3.158569
1490302194.494242, 1490302194.496690, -0.217529, +0.985474, +0.163147, +9.841919, -0.366211, -3.158569
1490302194.496948, 1490302194.499233, -0.217529, +0.985474, +0.163147, +11.001587, -0.488281, -3.738403
1490302194.499494, 1490302194.501780, -0.217529, +0.985474, +0.163147, +11.001587, -0.488281, -3.738403
1490302194.502040, 1490302194.504331, -0.217529, +0.985474, +0.163147, +10.711670, +0.213623, -2.578735
1490302194.504772, 1490302194.507178, -0.218811, +0.973755, +0.162048, +10.711670, +0.213623, -2.578735
1490302194.507446, 1490302194.509859, -0.218811, +0.973755, +0.162048, +9.689331, -0.091553, -2.700806
1490302194.510126, 1490302194.512543, -0.218811, +0.973755, +0.162048, +9.689331, -0.091553, -2.700806
1490302194.512809, 1490302194.515231, -0.218811, +0.978149, +0.165161, +9.323120, +0.000000, -2.502441
1490302194.515495, 1490302194.517913, -0.236755, +0.978149, +0.165161, +9.323120, +0.000000, -2.502441
1490302194.518177, 1490302194.520587, -0.236755, +0.978149, +0.165161, +8.407593, +0.000000, -2.700806
1490302194.520852, 1490302194.523264, -0.236755, +0.978149, +0.165161, +8.407593, +0.000000, -2.700806
1490302194.523529, 1490302194.525952, -0.235657, +0.986755, +0.158386, +8.407593, +1.037598, -3.097534
1490302194.526217, 1490302194.528623, -0.235657, +0.986755, +0.158386, +8.773804, +1.037598, -3.097534
1490302194.528887, 1490302194.531294, -0.235657, +0.986755, +0.158386, +8.773804, +1.037598, -2.731323
1490302194.531559, 1490302194.533978, -0.235657, +0.986755, +0.158386, +8.132935, +1.464844, -2.731323
1490302194.534242, 1490302194.536551, -0.209473, +1.009094, +0.167358, +8.132935, +1.464844, -3.417969
1490302194.536808, 1490302194.539094, -0.209473, +1.009094, +0.167358, +9.033203, +1.510620, -3.417969
1490302194.539351, 1490302194.541636, -0.209473, +1.009094, +0.167358, +9.033203, +1.510620, -3.417969
1490302194.541892, 1490302194.544182, -0.209473, +1.009094, +0.170288, +8.224487, +1.495361, -2.517700
1490302194.544459, 1490302194.546876, -0.212036, +1.002319, +0.170288, +8.224487, +1.495361, -2.517700
1490302194.547139, 1490302194.549555, -0.212036, +1.002319, +0.170288, +8.224487, +1.602173, -3.417969
1490302194.549819, 1490302194.552231, -0.212036, +1.002319, +0.170288, +8.224487, +1.602173, -3.417969
1490302194.552494, 1490302194.554896, -0.206909, +0.996277, +0.171021, +9.063721, +1.785278, -3.677368
1490302194.555154, 1490302194.557437, -0.206909, +0.996277, +0.171021, +9.063721, +1.785278, -3.677368
1490302194.557695, 1490302194.559987, -0.206909, +0.996277, +0.171021, +8.087158, +1.632690, -2.685547
1490302194.560296, 1490302194.562640, -0.206909, +0.996277, +0.171021, +8.087158, +1.632690, -2.685547
1490302194.562899, 1490302194.565269, -0.201050, +0.989136, +0.171204, +7.324219, +0.930786, -3.616333
1490302194.565535, 1490302194.567948, -0.201050, +0.989136, +0.171204, +7.324219, +0.930786, -3.616333
1490302194.568212, 1490302194.570623, -0.201050, +0.989136, +0.171204, +8.285522, +0.595093, -3.540039
1490302194.570888, 1490302194.573305, -0.201050, +0.942261, +0.171936, +8.285522, +0.595093, -3.540039
1490302194.573571, 1490302194.575952, -0.205627, +0.982544, +0.171936, +7.751465, +0.091553, -3.417969
1490302194.576211, 1490302194.578496, -0.205627, +0.982544, +0.171936, +7.751465, +0.091553, -3.417969
1490302194.578879, 1490302194.581168, -0.205627, +0.982544, +0.171936, +7.751465, -0.167847, -3.814697
1490302194.581425, 1490302194.583712, -0.211487, +0.982544, +0.169922, +8.758545, -0.167847, -3.814697
1490302194.583970, 1490302194.586368, -0.211487, +0.982544, +0.169922, +8.758545, -0.167847, -2.883911
1490302194.586633, 1490302194.589048, -0.211487, +0.982544, +0.169922, +8.331299, -0.534058, -2.883911
1490302194.589313, 1490302194.591731, -0.211487, +0.982544, +0.169922, +8.331299, -0.534058, -2.883911
1490302194.591994, 1490302194.594458, -0.221924, +0.985657, +0.170105, +8.773804, -0.320435, -3.799438
1490302194.594718, 1490302194.597009, -0.221924, +0.985657, +0.170105, +8.773804, -0.320435, -3.799438
1490302194.597267, 1490302194.599554, -0.221924, +0.985657, +0.170105, +8.300781, +0.640869, -2.685547
1490302194.599812, 1490302194.602100, -0.221924, +0.985657, +0.170105, +8.300781, +0.640869, -2.685547
1490302194.602358, 1490302194.604693, -0.227783, +0.985657, +0.172485, +7.644653, +0.717163, -2.624512
1490302194.604949, 1490302194.607238, -0.227783, +0.985657, +0.172485, +7.644653, +0.717163, -2.624512
1490302194.607495, 1490302194.609782, -0.227783, +0.985657, +0.172485, +8.880615, +1.754761, -2.990723
1490302194.610039, 1490302194.612323, -0.227783, +0.985657, +0.170105, +8.880615, +1.754761, -2.990723
1490302194.612580, 1490302194.614958, -0.230713, +0.985840, +0.170105, +7.629395, +1.754761, -2.243042
1490302194.615216, 1490302194.617506, -0.230713, +0.985840, +0.170105, +7.629395, +1.754761, -2.243042
1490302194.617762, 1490302194.620051, -0.230713, +0.985840, +0.170105, +7.629395, +1.327515, -3.311157
1490302194.620308, 1490302194.622594, -0.215332, +0.990051, +0.165527, +7.934570, +1.327515, -3.311157
1490302194.622851, 1490302194.625309, -0.215332, +0.990051, +0.165527, +7.934570, +1.327515, -2.670288
1490302194.625566, 1490302194.627853, -0.215332, +0.990051, +0.165527, +8.987427, +2.136230, -2.670288
1490302194.628111, 1490302194.630396, -0.215332, +0.990051, +0.165527, +8.987427, +2.136230, -2.670288
1490302194.630654, 1490302194.632941, -0.211121, +0.988220, +0.172485, +7.995605, +1.708984, -1.663208
1490302194.633199, 1490302194.635555, -0.211121, +0.988220, +0.172485, +7.995605, +1.708984, -1.663208
1490302194.635821, 1490302194.638235, -0.211121, +0.988220, +0.172485, +7.583618, +0.930786, -1.892090
1490302194.638501, 1490302194.640912, -0.211121, +0.988220, +0.172485, +7.583618, +0.930786, -1.892090
1490302194.641176, 1490302194.643595, -0.218994, +0.989868, +0.166260, +9.017944, +0.946045, -2.548218
1490302194.643859, 1490302194.646286, -0.218994, +0.989868, +0.166260, +9.017944, +0.946045, -2.548218
1490302194.646551, 1490302194.648966, -0.218994, +0.989868, +0.166260, +8.880615, +1.480103, -1.342773
1490302194.649230, 1490302194.651638, -0.218994, +0.986389, +0.182556, +8.880615, +1.480103, -1.342773
1490302194.651904, 1490302194.654308, -0.232727, +0.986389, +0.182556, +7.431030, +1.251221, -1.266479
1490302194.654570, 1490302194.656979, -0.232727, +0.986389, +0.182556, +7.431030, +1.251221, -1.266479
1490302194.657242, 1490302194.659655, -0.232727, +0.986389, +0.182556, +8.163452, +1.449585, -2.136230
1490302194.659918, 1490302194.662326, -0.225220, +0.987305, +0.175049, +8.163452, +1.449585, -2.136230
1490302194.662588, 1490302194.665040, -0.225220, +0.987305, +0.175049, +8.209229, +2.014160, -1.663208
1490302194.665304, 1490302194.667716, -0.225220, +0.987305, +0.175049, +8.209229, +2.014160, -1.663208
1490302194.667983, 1490302194.670389, -0.225220, +0.987305, +0.165710, +6.774902, +1.541138, -1.129150
1490302194.670652, 1490302194.673067, -0.215149, +0.988953, +0.165710, +6.774902, +1.541138, -1.129150
1490302194.673329, 1490302194.675693, -0.215149, +0.988953, +0.165710, +6.774902, +1.754761, -2.227783
1490302194.675948, 1490302194.678236, -0.215149, +0.988953, +0.165710, +6.866455, +1.754761, -2.227783
1490302194.678492, 1490302194.680781, -0.215149, +0.992065, +0.163513, +6.866455, +1.754761, -2.151489
1490302194.681037, 1490302194.683325, -0.194458, +0.992065, +0.163513, +7.369995, +2.456665, -2.151489
1490302194.683687, 1490302194.686083, -0.194458, +0.992065, +0.163513, +7.369995, +2.456665, -1.678467
1490302194.686347, 1490302194.688756, -0.194458, +0.992065, +0.163513, +6.469727, +2.517700, -1.678467
1490302194.689019, 1490302194.691432, -0.185120, +0.988953, +0.165894, +6.469727, +2.517700, -1.678467
1490302194.691695, 1490302194.694108, -0.185120, +0.988953, +0.165894, +6.057739, +1.846313, -3.036499
1490302194.694372, 1490302194.696829, -0.185120, +0.988953, +0.165894, +6.057739, +1.846313, -3.036499
1490302194.697091, 1490302194.699570, -0.185120, +0.988953, +0.165894, +6.698608, +1.647949, -3.799438
1490302194.699835, 1490302194.702248, -0.192261, +0.982178, +0.165161, +6.698608, +1.647949, -3.799438
1490302194.702513, 1490302194.704935, -0.192261, +0.982178, +0.165161, +6.759644, +2.075195, -3.112793
1490302194.705200, 1490302194.707615, -0.192261, +0.982178, +0.165161, +6.759644, +2.075195, -3.112793
1490302194.707879, 1490302194.710293, -0.196655, +0.983643, +0.173584, +5.523682, +2.075195, -3.280640
1490302194.710555, 1490302194.712968, -0.196655, +0.983643, +0.173584, +5.523682, +2.075195, -3.280640
1490302194.713231, 1490302194.715652, -0.196655, +0.983643, +0.173584, +5.859375, +1.632690, -4.394531
1490302194.715917, 1490302194.718329, -0.196655, +0.983643, +0.173584, +5.859375, +1.632690, -4.394531
1490302194.718593, 1490302194.721010, -0.200134, +0.986206, +0.170471, +6.561279, +1.846313, -4.562378
1490302194.721275, 1490302194.723686, -0.200134, +0.986206, +0.170471, +6.561279, +1.846313, -4.562378
1490302194.723949, 1490302194.726280, -0.200134, +0.986206, +0.170471, +6.164551, +2.334595, -3.067017
1490302194.726536, 1490302194.728821, -0.200134, +0.986206, +0.175964, +6.164551, +2.334595, -3.067017
1490302194.729078, 1490302194.731365, -0.209839, +0.984375, +0.175964, +5.523682, +2.410889, -3.616333
1490302194.731623, 1490302194.733906, -0.209839, +0.984375, +0.175964, +5.523682, +2.410889, -3.616333
1490302194.734162, 1490302194.736453, -0.209839, +0.984375, +0.175964, +5.523682, +2.609253, -4.684448
1490302194.736710, 1490302194.738995, -0.209839, +0.989319, +0.170654, +5.889893, +2.609253, -4.684448
1490302194.739251, 1490302194.741534, -0.215881, +0.989319, +0.170654, +5.889893, +2.609253, -4.653931
1490302194.741791, 1490302194.744072, -0.215881, +0.989319, +0.170654, +6.561279, +3.616333, -4.653931
1490302194.744329, 1490302194.746759, -0.215881, +0.989319, +0.170654, +6.561279, +3.616333, -4.653931
1490302194.747023, 1490302194.749439, -0.210938, +0.986938, +0.171753, +5.950928, +4.333496, -3.494263
1490302194.749702, 1490302194.752117, -0.210938, +0.986938, +0.171753, +5.950928, +4.333496, -3.494263
1490302194.752382, 1490302194.754840, -0.210938, +0.986938, +0.171753, +4.486084, +3.677368, -3.601074
1490302194.755104, 1490302194.757518, -0.210938, +0.986938, +0.171753, +4.486084, +3.677368, -3.601074
1490302194.757782, 1490302194.760191, -0.210022, +0.977966, +0.167542, +4.577637, +3.814697, -3.982544
1490302194.760455, 1490302194.762866, -0.210022, +0.977966, +0.167542, +4.577637, +3.814697, -3.982544
1490302194.763129, 1490302194.765550, -0.210022, +0.977966, +0.167542, +5.493164, +4.562378, -3.555298
1490302194.765813, 1490302194.768226, -0.210022, +0.980713, +0.167542, +5.493164, +4.562378, -3.555298
1490302194.768491, 1490302194.770903, -0.221191, +0.980713, +0.167542, +4.470825, +5.661011, -2.593994
1490302194.771167, 1490302194.773576, -0.221191, +0.980713, +0.167542, +4.470825, +5.661011, -2.593994
1490302194.773841, 1490302194.776266, -0.221191, +0.980713, +0.167542, +3.616333, +5.538940, -3.204346
1490302194.776531, 1490302194.778948, -0.208557, +0.993530, +0.162598, +3.616333, +5.538940, -3.204346
1490302194.779211, 1490302194.781628, -0.208557, +0.993530, +0.162598, +4.623413, +5.905151, -3.677368
1490302194.781890, 1490302194.784302, -0.208557, +0.993530, +0.162598, +4.623413, +5.905151, -3.677368
1490302194.784569, 1490302194.786855, -0.208557, +0.993530, +0.162598, +4.486084, +6.851196, -2.655029
1490302194.787219, 1490302194.789505, -0.207275, +0.994629, +0.182007, +4.486084, +6.851196, -2.655029
1490302194.789762, 1490302194.792048, -0.207275, +0.994629, +0.182007, +0.579834, +7.049561, -2.334595
1490302194.792305, 1490302194.794651, -0.207275, +0.994629, +0.182007, +3.479004, +7.049561, -2.334595
1490302194.794913, 1490302194.797291, -0.207275, +0.979614, +0.181641, +3.479004, +7.049561, -3.387451
1490302194.797552, 1490302194.800031, -0.208008, +0.979614, +0.181641, +3.738403, +7.369995, -3.387451
1490302194.800296, 1490302194.802709, -0.208008, +0.979614, +0.181641, +3.738403, +7.369995, -3.372192
1490302194.802972, 1490302194.805425, -0.208008, +0.979614, +0.181641, +5.050659, +8.316040, -3.372192
1490302194.805691, 1490302194.808099, -0.208740, +0.966431, +0.179993, +5.050659, +8.316040, -2.105713
1490302194.808365, 1490302194.810773, -0.208740, +0.966431, +0.179993, +4.226685, +9.109497, -2.105713
1490302194.811037, 1490302194.813449, -0.208740, +0.966431, +0.179993, +4.226685, +9.109497, -2.105713
1490302194.813713, 1490302194.816138, -0.208740, +0.966431, +0.179993, +3.417969, +8.819580, -1.983643
1490302194.816403, 1490302194.818817, -0.206909, +0.968811, +0.174866, +3.417969, +8.819580, -1.983643
1490302194.819083, 1490302194.821500, -0.206909, +0.968811, +0.174866, +4.058838, +8.804321, -2.471924
1490302194.821766, 1490302194.824174, -0.206909, +0.968811, +0.174866, +4.058838, +8.804321, -2.471924
1490302194.824448, 1490302194.826889, -0.206909, +0.984009, +0.174683, +3.631592, +9.124756, -1.144409
1490302194.827153, 1490302194.829571, -0.225220, +0.984009, +0.174683, +3.631592, +9.124756, -1.144409
1490302194.829835, 1490302194.832246, -0.225220, +0.984009, +0.174683, +2.639771, +9.063721, -1.846313
1490302194.832513, 1490302194.834918, -0.225220, +0.984009, +0.174683, +2.639771, +9.063721, -1.846313
1490302194.835176, 1490302194.837460, -0.214417, +1.000305, +0.176331, +3.143311, +10.055542, -1.968384
1490302194.837723, 1490302194.840003, -0.214417, +1.000305, +0.176331, +3.143311, +10.055542, -1.968384
1490302194.840264, 1490302194.842549, -0.214417, +1.000305, +0.176331, +2.059937, +10.589600, -1.571655
1490302194.842811, 1490302194.845106, -0.214417, +1.000305, +0.176331, +2.059937, +10.589600, -1.571655
1490302194.845369, 1490302194.847657, -0.197205, +1.003418, +0.173767, +2.746582, +10.574341, -1.724243
1490302194.847918, 1490302194.850203, -0.197205, +1.003418, +0.173767, +2.746582, +10.574341, -1.724243
1490302194.850464, 1490302194.852746, -0.197205, +1.003418, +0.173767, +2.746582, +10.574341, -0.579834
1490302194.853007, 1490302194.855348, -0.197205, +1.003418, +0.182739, +2.639771, +11.566162, -0.579834
1490302194.855614, 1490302194.857992, -0.210938, +0.991333, +0.182739, +2.639771, +11.566162, -1.083374
1490302194.858258, 1490302194.860634, -0.210938, +0.991333, +0.182739, +1.998901, +12.313843, -1.083374
1490302194.860903, 1490302194.863285, -0.210938, +0.991333, +0.182739, +1.998901, +12.313843, -1.083374
1490302194.863551, 1490302194.865947, -0.215698, +0.980347, +0.208557, +2.761841, +12.634277, -1.159668
1490302194.866214, 1490302194.868610, -0.215698, +0.980347, +0.208557, +2.761841, +12.634277, -1.159668
1490302194.868877, 1490302194.871276, -0.215698, +0.980347, +0.208557, +2.334595, +12.725830, +0.152588
1490302194.871542, 1490302194.873944, -0.215698, +0.980347, +0.208557, +2.334595, +12.725830, +0.152588
1490302194.874211, 1490302194.876616, -0.206177, +0.976685, +0.207458, +3.250122, +12.084961, -0.427246
1490302194.876885, 1490302194.879283, -0.206177, +0.976685, +0.207458, +3.250122, +12.084961, -0.427246
1490302194.879549, 1490302194.881945, -0.206177, +0.976685, +0.207458, +3.021240, +11.779785, +0.473022
1490302194.882212, 1490302194.884656, -0.206177, +0.976685, +0.186035, +3.021240, +11.779785, +0.473022
1490302194.884923, 1490302194.887321, -0.187500, +0.974121, +0.186035, +2.731323, +10.406494, -0.518799
1490302194.887588, 1490302194.889988, -0.187500, +0.974121, +0.186035, +2.731323, +10.406494, -0.518799
1490302194.890254, 1490302194.892654, -0.187500, +0.974121, +0.186035, +3.448486, +9.475708, -0.152588
1490302194.893030, 1490302194.895397, -0.183105, +0.989685, +0.166809, +3.448486, +9.475708, -0.152588
1490302194.895656, 1490302194.897941, -0.183105, +0.989685, +0.166809, +2.716064, +8.102417, +0.091553
1490302194.898200, 1490302194.900497, -0.183105, +0.989685, +0.166809, +2.716064, +8.102417, +0.091553
1490302194.900757, 1490302194.903044, -0.183105, +0.989685, +0.166809, +3.326416, +7.507324, +0.518799
1490302194.903302, 1490302194.905737, -0.188232, +0.973389, +0.159485, +3.326416, +7.507324, +0.518799
1490302194.906001, 1490302194.908416, -0.188232, +0.973389, +0.159485, +3.326416, +7.324219, +1.388550
1490302194.908679, 1490302194.911090, -0.188232, +0.973389, +0.159485, +2.182007, +7.324219, +1.388550
1490302194.911353, 1490302194.913762, -0.188232, +0.973389, +0.166443, +2.182007, +11.230469, +1.358032
1490302194.914029, 1490302194.916451, -0.228333, +0.975586, +0.166443, +2.609253, +8.224487, +1.358032
1490302194.916714, 1490302194.919128, -0.228333, +0.975586, +0.166443, +2.609253, +8.224487, +2.243042
1490302194.919392, 1490302194.921806, -0.228333, +0.975586, +0.166443, +1.541138, +10.299683, +2.243042
1490302194.922073, 1490302194.924497, -0.242981, +0.984924, +0.194275, +1.541138, +10.299683, +1.770020
1490302194.924765, 1490302194.927173, -0.242981, +0.984924, +0.194275, +1.022339, +12.588501, +1.770020
1490302194.927439, 1490302194.929849, -0.242981, +0.984924, +0.194275, +1.022339, +12.588501, +1.770020
1490302194.930117, 1490302194.932527, -0.242981, +0.984924, +0.194275, +0.762939, +13.992310, +3.326416
1490302194.932794, 1490302194.935257, -0.240417, +0.977600, +0.213501, +0.762939, +13.992310, +3.326416
1490302194.935524, 1490302194.937934, -0.240417, +0.977600, +0.213501, +1.007080, +15.106201, +3.158569
1490302194.938200, 1490302194.940611, -0.240417, +0.977600, +0.213501, +1.007080, +15.106201, +3.158569
1490302194.940881, 1490302194.943292, -0.240417, +0.977600, +0.230347, +1.480103, +16.754150, +2.822876
1490302194.943560, 1490302194.945995, -0.205078, +0.970825, +0.230347, +1.480103, +16.754150, +2.822876
1490302194.946260, 1490302194.948552, -0.205078, +0.970825, +0.230347, +0.625610, +17.623901, +2.960205
1490302194.948813, 1490302194.951100, -0.205078, +0.970825, +0.230347, +0.625610, +17.623901, +2.960205
1490302194.951361, 1490302194.953653, -0.179443, +0.995728, +0.216797, +1.525879, +17.608643, +2.029419
1490302194.953912, 1490302194.956602, -0.179443, +0.995728, +0.216797, +1.525879, +17.608643, +2.029419
1490302194.956894, 1490302194.959307, -0.179443, +0.995728, +0.216797, +1.266479, +17.120361, +3.585815
1490302194.959577, 1490302194.961988, -0.179443, +0.995728, +0.216797, +1.266479, +17.120361, +3.585815
1490302194.962256, 1490302194.964682, -0.177063, +1.003967, +0.203613, +1.495361, +15.975952, +2.349854
1490302194.964951, 1490302194.967365, -0.177063, +1.003967, +0.203613, +1.495361, +15.975952, +2.349854
1490302194.967632, 1490302194.970044, -0.177063, +1.003967, +0.203613, +3.326416, +15.350342, +1.556396
1490302194.970311, 1490302194.972721, -0.177063, +0.993530, +0.235107, +3.326416, +15.350342, +1.556396
1490302194.972988, 1490302194.975449, -0.169189, +0.993530, +0.235107, +3.234863, +14.099121, +2.578735
1490302194.975717, 1490302194.978114, -0.169189, +0.993530, +0.235107, +3.234863, +14.099121, +2.578735
1490302194.978380, 1490302194.980776, -0.169189, +0.993530, +0.235107, +2.517700, +11.657715, +1.159668
1490302194.981043, 1490302194.983438, -0.156006, +0.988953, +0.218079, +2.517700, +11.657715, +1.159668
1490302194.983705, 1490302194.986110, -0.156006, +0.988953, +0.218079, +2.517700, +10.162354, +0.625610
1490302194.986376, 1490302194.988769, -0.156006, +0.988953, +0.218079, +3.265381, +10.162354, +0.625610
1490302194.989034, 1490302194.991427, -0.156006, +0.988953, +0.218079, +3.265381, +8.316040, +0.808716
1490302194.991691, 1490302194.994087, -0.160767, +0.995178, +0.223206, +2.517700, +8.316040, +0.808716
1490302194.994351, 1490302194.996638, -0.160767, +0.995178, +0.223206, +2.517700, +8.316040, -0.122070
1490302194.997045, 1490302194.999476, -0.160767, +0.995178, +0.223206, +3.631592, +6.546021, -0.122070
1490302194.999735, 1490302195.002024, -0.160767, +0.977417, +0.217896, +3.631592, +6.546021, +0.625610
1490302195.002282, 1490302195.004635, -0.164062, +0.977417, +0.217896, +3.356934, +4.348755, +0.625610
1490302195.004901, 1490302195.007316, -0.164062, +0.977417, +0.217896, +3.356934, +4.348755, -3.280640
1490302195.007582, 1490302195.009998, -0.164062, +0.977417, +0.217896, +2.609253, +2.380371, -0.473022
1490302195.010263, 1490302195.012675, -0.156555, +0.963318, +0.217896, +2.609253, +2.380371, -0.473022
1490302195.012941, 1490302195.015352, -0.156555, +0.963318, +0.217896, +2.914429, +1.434326, -0.381470
1490302195.015616, 1490302195.018024, -0.156555, +0.963318, +0.217896, +2.914429, +1.434326, -0.381470
1490302195.018287, 1490302195.020697, -0.156555, +0.963318, +0.217896, +2.502441, +0.045776, -0.610352
1490302195.020963, 1490302195.023374, -0.180725, +0.974121, +0.202332, +2.502441, +0.045776, -0.610352
1490302195.023639, 1490302195.026064, -0.180725, +0.974121, +0.202332, +2.304077, -0.106812, -0.228882
1490302195.026329, 1490302195.028744, -0.180725, +0.974121, +0.202332, +2.304077, -0.106812, -0.228882
1490302195.029010, 1490302195.031418, -0.211487, +0.971558, +0.207458, +1.708984, -0.122070, +0.091553
1490302195.031684, 1490302195.034093, -0.211487, +0.971558, +0.207458, +1.708984, -0.122070, +0.091553
1490302195.034358, 1490302195.036771, -0.211487, +0.971558, +0.207458, +2.578735, +0.457764, +0.259399
1490302195.037034, 1490302195.039447, -0.211487, +0.971558, +0.207458, +2.578735, +0.457764, +0.259399
1490302195.039713, 1490302195.042120, -0.217529, +0.987122, +0.219910, +1.937866, +1.754761, +1.251221
1490302195.042384, 1490302195.044814, -0.217529, +0.987122, +0.219910, +1.937866, +1.754761, +1.251221
1490302195.045071, 1490302195.047359, -0.217529, +0.987122, +0.219910, +1.556396, +2.838135, -0.411987
1490302195.047617, 1490302195.049906, -0.217529, +0.987122, +0.204529, +1.556396, +2.838135, -0.411987
1490302195.050163, 1490302195.052447, -0.231628, +1.014771, +0.204529, +1.556396, +3.784180, -0.579834
1490302195.052705, 1490302195.055062, -0.231628, +1.014771, +0.204529, +2.670288, +3.784180, -0.579834
1490302195.055325, 1490302195.057723, -0.231628, +1.014771, +0.204529, +2.670288, +3.784180, -0.213623
1490302195.057986, 1490302195.060380, -0.231628, +1.022827, +0.220642, +2.227783, +3.829956, -0.213623
1490302195.060642, 1490302195.063040, -0.180725, +1.022827, +0.220642, +2.227783, +3.829956, -2.578735
1490302195.063302, 1490302195.065711, -0.180725, +1.022827, +0.220642, +2.471924, +2.655029, -2.578735
1490302195.065972, 1490302195.068371, -0.180725, +1.022827, +0.220642, +2.471924, +2.655029, -2.578735
1490302195.068633, 1490302195.071030, -0.107666, +1.029419, +0.227417, +4.501343, -0.488281, -3.738403
1490302195.071295, 1490302195.073688, -0.107666, +1.029419, +0.227417, +4.501343, -0.488281, -3.738403
1490302195.073952, 1490302195.076356, -0.107666, +1.029419, +0.227417, +4.409790, -4.714966, -4.608154
1490302195.076617, 1490302195.079017, -0.107666, +1.029419, +0.274292, +4.409790, -4.714966, -4.608154
1490302195.079280, 1490302195.081676, -0.135681, +1.008728, +0.257996, +4.119873, -8.209229, -6.607056
1490302195.081938, 1490302195.084334, -0.135681, +1.008728, +0.257996, +4.119873, -8.209229, -6.607056
1490302195.084651, 1490302195.087052, -0.135681, +1.008728, +0.257996, +6.393433, -10.314941, -8.483887
1490302195.087319, 1490302195.089714, -0.182556, +0.973572, +0.254883, +6.393433, -10.314941, -8.483887
1490302195.089983, 1490302195.092382, -0.146851, +0.973572, +0.254883, +7.141113, -10.452271, -8.132935
1490302195.092648, 1490302195.095032, -0.146851, +0.973572, +0.254883, +7.141113, -10.452271, -8.132935
1490302195.095294, 1490302195.097582, -0.146851, +0.973572, +0.254883, +6.210327, -10.589600, -7.522583
1490302195.097841, 1490302195.100162, -0.169006, +0.967346, +0.237488, +6.210327, -10.589600, -7.522583
1490302195.100422, 1490302195.102708, -0.169006, +0.967346, +0.237488, +5.615234, -11.291504, -9.140015
1490302195.103077, 1490302195.105412, -0.169006, +0.967346, +0.237488, +5.615234, -11.291504, -9.140015
1490302195.105673, 1490302195.107960, -0.169006, +0.967346, +0.237488, +5.615234, -11.810303, -10.375977
1490302195.108222, 1490302195.110511, -0.153625, +0.998291, +0.228149, +6.881714, -11.810303, -10.375977
1490302195.110774, 1490302195.113060, -0.153625, +0.998291, +0.228149, +6.881714, -11.810303, -10.452271
1490302195.113325, 1490302195.115706, -0.153625, +0.998291, +0.228149, +8.071899, -13.412476, -10.452271
1490302195.115979, 1490302195.118392, -0.153625, +0.998291, +0.225403, +8.071899, -13.412476, -10.147095
1490302195.118665, 1490302195.121078, -0.140808, +0.995178, +0.225403, +7.507324, -15.045166, -10.147095
1490302195.121350, 1490302195.123762, -0.140808, +0.995178, +0.225403, +7.507324, -15.045166, -10.147095
1490302195.124033, 1490302195.126452, -0.140808, +0.995178, +0.225403, +6.820679, -16.876221, -10.437012
1490302195.126723, 1490302195.129129, -0.164246, +0.992249, +0.220825, +6.820679, -16.876221, -10.437012
1490302195.129401, 1490302195.131810, -0.164246, +0.992249, +0.220825, +7.553101, -18.035889, -11.444092
1490302195.132081, 1490302195.134502, -0.164246, +0.992249, +0.220825, +7.553101, -18.035889, -11.444092
1490302195.134774, 1490302195.137184, -0.164246, +0.992249, +0.220825, +8.804321, -18.722534, -11.779785
1490302195.137454, 1490302195.139870, -0.193726, +0.999573, +0.237122, +8.804321, -18.722534, -11.779785
1490302195.140140, 1490302195.142549, -0.193726, +0.999573, +0.237122, +9.384155, -18.356323, -10.848999
1490302195.142821, 1490302195.145241, -0.193726, +0.999573, +0.237122, +9.384155, -18.356323, -10.848999
1490302195.145512, 1490302195.147927, -0.193726, +0.998291, +0.259460, +9.033203, -18.341064, -9.292603
1490302195.148198, 1490302195.150614, -0.203796, +0.998291, +0.259460, +9.033203, -18.341064, -9.292603
1490302195.150882, 1490302195.153292, -0.203796, +0.998291, +0.259460, +9.475708, -18.737793, -10.009766
1490302195.153563, 1490302195.155897, -0.203796, +0.998291, +0.259460, +9.475708, -18.737793, -10.009766
1490302195.156162, 1490302195.158450, -0.192261, +0.993164, +0.253418, +10.742188, -18.554688, -10.314941
1490302195.158716, 1490302195.161007, -0.192261, +0.993164, +0.253418, +10.742188, -18.554688, -10.314941
1490302195.161274, 1490302195.163564, -0.192261, +0.993164, +0.253418, +11.657715, -17.929077, -9.231567
1490302195.163829, 1490302195.166252, -0.192261, +0.993164, +0.253418, +11.657715, -17.929077, -9.231567
1490302195.166524, 1490302195.168936, -0.216614, +0.974121, +0.258545, +11.657715, -17.379761, -7.553101
1490302195.169206, 1490302195.171621, -0.216614, +0.974121, +0.258545, +11.215210, -17.379761, -7.553101
1490302195.171892, 1490302195.174304, -0.216614, +0.974121, +0.258545, +11.215210, -17.379761, -7.522583
1490302195.174574, 1490302195.176986, -0.216614, +0.970459, +0.245911, +11.230469, -17.211914, -7.522583
1490302195.177258, 1490302195.179668, -0.212585, +0.970459, +0.245911, +11.230469, -17.211914, -7.629395
1490302195.179939, 1490302195.182356, -0.212585, +0.970459, +0.245911, +12.603760, -16.601562, -7.629395
1490302195.182628, 1490302195.185052, -0.212585, +0.970459, +0.245911, +12.603760, -16.601562, -5.767822
1490302195.185323, 1490302195.187733, -0.215698, +0.968445, +0.244995, +13.122559, -15.655518, -5.767822
1490302195.188004, 1490302195.190418, -0.215698, +0.968445, +0.244995, +13.122559, -15.655518, -5.767822
1490302195.190689, 1490302195.193104, -0.215698, +0.968445, +0.244995, +12.496948, -15.457153, -4.196167
1490302195.193375, 1490302195.195838, -0.215698, +0.968445, +0.244995, +12.496948, -15.457153, -4.196167
1490302195.196107, 1490302195.198517, -0.219360, +0.963135, +0.249390, +12.695312, -15.914917, -4.302979
1490302195.198788, 1490302195.201197, -0.219360, +0.963135, +0.249390, +12.695312, -15.914917, -4.302979
1490302195.201468, 1490302195.203882, -0.219360, +0.963135, +0.249390, +13.214111, -14.846802, -3.585815
1490302195.204152, 1490302195.206457, -0.250122, +0.978333, +0.227783, +13.214111, -14.846802, -3.585815
1490302195.206828, 1490302195.209114, -0.250122, +0.978333, +0.227783, +12.466431, -12.725830, -2.059937
1490302195.209377, 1490302195.211664, -0.250122, +0.978333, +0.227783, +12.466431, -12.725830, -2.059937
1490302195.211927, 1490302195.214212, -0.250122, +0.978333, +0.227783, +11.840820, -11.825562, -1.052856
1490302195.214468, 1490302195.216879, -0.187500, +0.995911, +0.221008, +11.840820, -11.825562, -1.052856
1490302195.217150, 1490302195.219560, -0.187500, +0.995911, +0.221008, +11.886597, -11.276245, -1.434326
1490302195.219830, 1490302195.222242, -0.187500, +0.995911, +0.221008, +11.886597, -11.276245, -1.434326
1490302195.222512, 1490302195.224932, -0.187500, +0.995911, +0.221008, +12.191772, -11.260986, -2.304077
1490302195.225203, 1490302195.227617, -0.165527, +0.990417, +0.216248, +12.191772, -11.260986, -2.304077
1490302195.227887, 1490302195.230302, -0.165527, +0.990417, +0.216248, +12.969971, -10.833740, -1.770020
1490302195.230572, 1490302195.232983, -0.165527, +0.990417, +0.216248, +12.969971, -10.833740, -1.770020
1490302195.233253, 1490302195.235678, -0.165527, +0.986389, +0.233276, +12.985229, -10.894775, -0.625610
1490302195.235947, 1490302195.238362, -0.177429, +0.986389, +0.233276, +12.985229, -10.894775, -0.625610
1490302195.238632, 1490302195.241042, -0.177429, +0.986389, +0.233276, +12.985229, -11.474609, -1.556396
1490302195.241313, 1490302195.243724, -0.177429, +0.986389, +0.233276, +12.634277, -11.474609, -1.556396
1490302195.243993, 1490302195.246381, -0.175049, +0.984924, +0.242432, +12.634277, -10.910034, -1.693726
1490302195.246646, 1490302195.248935, -0.175049, +0.984924, +0.242432, +13.732910, -10.910034, -1.693726
1490302195.249199, 1490302195.251490, -0.175049, +0.984924, +0.242432, +13.732910, -10.910034, -0.701904
1490302195.251755, 1490302195.254040, -0.175049, +0.984924, +0.242432, +13.519287, -11.047363, -0.701904
1490302195.254304, 1490302195.256598, -0.167908, +0.983826, +0.249756, +13.519287, -11.047363, -0.701904
1490302195.256861, 1490302195.259149, -0.167908, +0.983826, +0.249756, +13.870239, -12.039185, -1.510620
1490302195.259413, 1490302195.261704, -0.167908, +0.983826, +0.249756, +13.870239, -12.039185, -1.510620
1490302195.261967, 1490302195.264253, -0.167908, +1.030701, +0.235107, +15.335083, -11.352539, -1.571655
1490302195.264522, 1490302195.266935, -0.191345, +0.989136, +0.235107, +15.335083, -11.352539, -1.571655
1490302195.267205, 1490302195.269617, -0.191345, +0.989136, +0.235107, +14.846802, -10.833740, -0.503540
1490302195.269890, 1490302195.272303, -0.191345, +0.989136, +0.235107, +14.846802, -10.833740, -0.503540
1490302195.272576, 1490302195.275040, -0.143005, +0.949402, +0.215515, +14.373779, -12.100220, -0.732422
1490302195.275312, 1490302195.277722, -0.143005, +0.949402, +0.215515, +14.373779, -12.100220, -0.732422
1490302195.277992, 1490302195.280409, -0.143005, +0.949402, +0.215515, +15.197754, -13.305664, +0.274658
1490302195.280679, 1490302195.283092, -0.143005, +0.949402, +0.215515, +15.197754, -13.305664, +0.274658
1490302195.283364, 1490302195.285781, -0.186035, +0.989136, +0.197021, +14.739990, -14.953613, +1.480103
1490302195.286053, 1490302195.288466, -0.186035, +0.989136, +0.197021, +14.739990, -14.953613, +1.480103
1490302195.288736, 1490302195.291149, -0.186035, +0.989136, +0.197021, +15.121460, -14.724731, +0.625610
1490302195.291421, 1490302195.293836, -0.186035, +0.996094, +0.194275, +15.121460, -14.724731, +0.625610
1490302195.294106, 1490302195.296430, -0.210571, +0.996094, +0.194275, +15.121460, -12.435913, +2.197266
1490302195.296693, 1490302195.298986, -0.210571, +0.996094, +0.194275, +15.289307, -12.435913, +2.197266
1490302195.299248, 1490302195.301542, -0.210571, +0.996094, +0.194275, +15.289307, -12.435913, +2.685547
1490302195.301806, 1490302195.304093, -0.197937, +1.004150, +0.216064, +14.389038, -11.291504, +2.685547
1490302195.304355, 1490302195.306767, -0.197937, +1.004150, +0.216064, +14.389038, -11.291504, +2.685547
1490302195.307040, 1490302195.309451, -0.197937, +1.004150, +0.216064, +15.472412, -9.933472, +3.295898
1490302195.309836, 1490302195.312251, -0.197937, +1.004150, +0.216064, +15.472412, -9.933472, +7.202148
1490302195.312520, 1490302195.314941, -0.188599, +1.010376, +0.231628, +14.968872, -9.857178, +4.898071
1490302195.315208, 1490302195.317623, -0.188599, +1.010376, +0.231628, +14.968872, -9.857178, +4.898071
1490302195.317890, 1490302195.320302, -0.188599, +1.010376, +0.231628, +15.457153, -10.040283, +4.699707
1490302195.320573, 1490302195.322984, -0.188599, +0.978699, +0.241882, +15.457153, -10.040283, +4.699707
1490302195.323255, 1490302195.325686, -0.165527, +0.978699, +0.241882, +16.113281, -9.628296, +6.118774
1490302195.325954, 1490302195.328369, -0.165527, +0.978699, +0.241882, +16.113281, -9.628296, +6.118774
1490302195.328637, 1490302195.331053, -0.165527, +0.978699, +0.241882, +15.747070, -10.650635, +7.202148
1490302195.331323, 1490302195.333736, -0.154724, +0.950684, +0.241150, +15.747070, -10.650635, +7.202148
1490302195.334008, 1490302195.336458, -0.154724, +0.950684, +0.241150, +16.403198, -11.337280, +7.339478
1490302195.336728, 1490302195.339139, -0.154724, +0.950684, +0.241150, +16.403198, -11.337280, +7.339478
1490302195.339410, 1490302195.341821, -0.154724, +0.950684, +0.194275, +16.342163, -11.550903, +9.078979
1490302195.342092, 1490302195.344516, -0.196106, +0.956726, +0.220825, +16.342163, -11.550903, +9.078979
1490302195.344782, 1490302195.347073, -0.196106, +0.956726, +0.220825, +15.960693, -12.557983, +9.460449
1490302195.347335, 1490302195.349620, -0.196106, +0.956726, +0.220825, +15.960693, -12.557983, +9.460449
1490302195.349882, 1490302195.352171, -0.196106, +0.973938, +0.221924, +16.906738, -11.749268, +9.826660
1490302195.352435, 1490302195.354810, -0.174866, +0.973938, +0.221924, +16.906738, -11.749268, +9.826660
1490302195.355074, 1490302195.357363, -0.174866, +0.973938, +0.221924, +16.906738, -10.559082, +11.978149
1490302195.357628, 1490302195.359918, -0.174866, +0.973938, +0.221924, +16.494751, -10.559082, +11.978149
1490302195.360184, 1490302195.362471, -0.174500, +0.977051, +0.198303, +16.494751, -10.559082, +12.405396
1490302195.362737, 1490302195.365098, -0.174500, +0.977051, +0.198303, +15.945435, -9.979248, +12.405396
1490302195.365370, 1490302195.367782, -0.174500, +0.977051, +0.198303, +15.945435, -9.979248, +12.405396
1490302195.368053, 1490302195.370465, -0.174500, +0.977051, +0.198303, +16.418457, -8.682251, +13.870239
1490302195.370736, 1490302195.373152, -0.186401, +0.991699, +0.204895, +16.418457, -8.682251, +13.870239
1490302195.373424, 1490302195.375846, -0.186401, +0.991699, +0.204895, +15.609741, -7.827759, +14.923096
1490302195.376117, 1490302195.378530, -0.186401, +0.991699, +0.204895, +15.609741, -7.827759, +14.923096
1490302195.378801, 1490302195.381214, -0.186401, +0.991699, +0.211670, +16.067505, -6.134033, +14.984131
1490302195.381486, 1490302195.383900, -0.160400, +0.986206, +0.211670, +16.067505, -6.134033, +14.984131
1490302195.384172, 1490302195.386631, -0.160400, +0.986206, +0.211670, +16.128540, -3.768921, +16.754150
1490302195.386902, 1490302195.389313, -0.160400, +0.986206, +0.211670, +16.128540, -3.768921, +16.754150
1490302195.389585, 1490302195.391998, -0.154175, +0.989685, +0.199402, +14.968872, -4.425049, +17.318726
1490302195.392268, 1490302195.394693, -0.154175, +0.989685, +0.199402, +14.968872, -4.425049, +17.318726
1490302195.394963, 1490302195.397380, -0.154175, +0.989685, +0.199402, +16.113281, -4.287720, +16.479492
1490302195.397651, 1490302195.400067, -0.154175, +0.989685, +0.199402, +16.113281, -4.287720, +16.479492
1490302195.400339, 1490302195.402750, -0.141541, +0.991882, +0.206543, +15.472412, -3.723145, +18.020630
1490302195.403022, 1490302195.405392, -0.141541, +0.991882, +0.206543, +15.472412, -3.723145, +18.020630
1490302195.405656, 1490302195.407939, -0.141541, +0.991882, +0.206543, +15.777588, -3.921509, +17.257690
1490302195.408202, 1490302195.410490, -0.141541, +0.981995, +0.203430, +15.777588, -3.921509, +17.257690
1490302195.410753, 1490302195.413039, -0.115906, +0.981995, +0.203430, +15.777588, -3.311157, +17.440796
1490302195.413411, 1490302195.415777, -0.115906, +0.981995, +0.203430, +15.777588, -3.311157, +17.440796
1490302195.416047, 1490302195.418460, -0.115906, +0.981995, +0.203430, +11.871338, -3.921509, +16.403198
1490302195.418733, 1490302195.421143, -0.132751, +0.970459, +0.196655, +14.724731, -3.921509, +16.403198
1490302195.421415, 1490302195.423827, -0.132751, +0.970459, +0.196655, +14.724731, -3.631592, +15.716553
1490302195.424097, 1490302195.426517, -0.132751, +0.970459, +0.196655, +14.862061, -3.631592, +15.716553
1490302195.426788, 1490302195.429200, -0.132751, +0.970459, +0.196655, +14.862061, -3.631592, +14.953613
1490302195.429471, 1490302195.431880, -0.104919, +0.973206, +0.191162, +14.495850, -3.463745, +14.953613
1490302195.432152, 1490302195.434564, -0.104919, +0.973206, +0.191162, +14.495850, -3.463745, +14.633179
1490302195.434837, 1490302195.437249, -0.104919, +0.973206, +0.191162, +15.182495, -2.471924, +14.633179
1490302195.437520, 1490302195.439934, -0.104919, +0.966614, +0.175415, +15.182495, -2.471924, +15.396118
1490302195.440205, 1490302195.442622, -0.078918, +0.966614, +0.175415, +14.419556, -2.471924, +15.396118
1490302195.442893, 1490302195.445315, -0.078918, +0.966614, +0.175415, +14.419556, -2.471924, +15.396118
1490302195.445585, 1490302195.447989, -0.078918, +0.966614, +0.175415, +13.748169, -2.670288, +13.778687
1490302195.448260, 1490302195.450677, -0.095032, +0.955627, +0.175964, +13.748169, -2.670288, +13.778687
1490302195.450950, 1490302195.453364, -0.095032, +0.955627, +0.175964, +13.442993, -1.480103, +13.504028
1490302195.453635, 1490302195.456001, -0.095032, +0.955627, +0.175964, +13.442993, -1.480103, +13.504028
1490302195.456266, 1490302195.458554, -0.095032, +0.955627, +0.222839, +11.917114, -1.586914, +13.076782
1490302195.458818, 1490302195.461107, -0.122498, +0.977417, +0.201416, +11.917114, -1.586914, +13.076782
1490302195.461372, 1490302195.463660, -0.122498, +0.977417, +0.201416, +12.863159, -0.549316, +12.313843
1490302195.463923, 1490302195.466212, -0.122498, +0.977417, +0.201416, +12.863159, -0.549316, +12.313843
1490302195.466477, 1490302195.468761, -0.122498, +1.024292, +0.205261, +12.756348, -0.198364, +13.046265
1490302195.469025, 1490302195.471309, -0.117188, +1.016418, +0.205261, +12.756348, -0.198364, +13.046265
1490302195.471574, 1490302195.473861, -0.117188, +1.016418, +0.205261, +12.756348, +0.503540, +11.795044
1490302195.474124, 1490302195.476531, -0.117188, +1.016418, +0.205261, +13.076782, +0.503540, +11.795044
1490302195.476804, 1490302195.479217, -0.101990, +1.027954, +0.205994, +13.076782, +0.930786, +11.932373
1490302195.479489, 1490302195.481902, -0.101990, +1.027954, +0.205994, +12.939453, +0.930786, +11.932373
1490302195.482174, 1490302195.484639, -0.101990, +1.027954, +0.205994, +12.939453, +0.930786, +11.245728
1490302195.484911, 1490302195.487329, -0.101990, +1.027954, +0.205994, +12.847900, +0.717163, +11.245728
1490302195.487602, 1490302195.490009, -0.095398, +1.007629, +0.215881, +12.847900, +0.717163, +11.489868
1490302195.490282, 1490302195.492694, -0.095398, +1.007629, +0.215881, +12.496948, +0.640869, +11.489868
1490302195.492966, 1490302195.495377, -0.095398, +1.007629, +0.215881, +12.496948, +0.640869, +10.330200
1490302195.495648, 1490302195.498059, -0.095398, +1.007629, +0.231628, +12.557983, -0.778198, +10.330200
1490302195.498330, 1490302195.500745, -0.078186, +0.989136, +0.231628, +12.557983, -0.778198, +10.330200
1490302195.501017, 1490302195.503425, -0.078186, +0.989136, +0.231628, +13.793945, -1.327515, +10.833740
1490302195.503697, 1490302195.506114, -0.078186, +0.989136, +0.231628, +13.793945, -1.327515, +10.833740
1490302195.506386, 1490302195.508796, -0.078003, +0.964233, +0.223572, +13.442993, -3.143311, +10.086060
1490302195.509068, 1490302195.511477, -0.078003, +0.964233, +0.223572, +13.442993, -3.143311, +10.086060
1490302195.511747, 1490302195.514157, -0.078003, +0.964233, +0.223572, +14.114380, -4.364014, +9.307861
1490302195.514436, 1490302195.516724, -0.078003, +0.964233, +0.223572, +14.114380, -4.364014, +9.307861
1490302195.517090, 1490302195.519380, -0.110596, +0.970276, +0.211853, +12.924194, -5.584717, +9.582520
1490302195.519641, 1490302195.521927, -0.110596, +0.970276, +0.211853, +12.924194, -5.584717, +9.582520
1490302195.522188, 1490302195.524483, -0.110596, +0.970276, +0.211853, +13.473511, -5.249023, +8.438110
1490302195.524754, 1490302195.527166, -0.110596, +1.017151, +0.219727, +13.473511, -5.249023, +8.438110
1490302195.527435, 1490302195.529847, -0.102356, +0.995911, +0.219727, +12.908936, -4.074097, +9.475708
1490302195.530116, 1490302195.532528, -0.102356, +0.995911, +0.219727, +12.908936, -4.074097, +9.475708
1490302195.532797, 1490302195.535250, -0.102356, +0.995911, +0.219727, +13.061523, -3.158569, +9.185791
1490302195.535519, 1490302195.537933, -0.106384, +0.989136, +0.204895, +13.061523, -3.158569, +9.185791
1490302195.538200, 1490302195.540612, -0.106384, +0.989136, +0.204895, +13.153076, -1.174927, +9.704590
1490302195.540882, 1490302195.543296, -0.106384, +0.989136, +0.204895, +13.153076, -1.174927, +9.704590
1490302195.543564, 1490302195.545981, -0.106384, +0.989136, +0.204895, +13.153076, -0.259399, +9.078979
1490302195.546251, 1490302195.548661, -0.101440, +1.004333, +0.198120, +12.161255, -0.259399, +9.078979
1490302195.548931, 1490302195.551342, -0.101440, +1.004333, +0.198120, +12.161255, +0.808716, +8.361816
1490302195.551611, 1490302195.554024, -0.101440, +1.004333, +0.198120, +12.908936, +0.808716, +8.361816
1490302195.554295, 1490302195.556719, -0.101440, +1.028320, +0.183472, +12.908936, +0.808716, +8.209229
1490302195.556989, 1490302195.559404, -0.109680, +1.028320, +0.183472, +12.588501, +1.708984, +8.209229
1490302195.559672, 1490302195.562084, -0.109680, +1.028320, +0.183472, +12.588501, +1.708984, +6.378174
1490302195.562351, 1490302195.564751, -0.109680, +1.028320, +0.183472, +12.619019, +2.670288, +6.378174
1490302195.565014, 1490302195.567299, -0.122498, +1.061462, +0.190979, +12.619019, +2.670288, +6.378174
1490302195.567560, 1490302195.569845, -0.122498, +1.061462, +0.190979, +13.076782, +3.799438, +6.011963
1490302195.570105, 1490302195.572394, -0.122498, +1.061462, +0.190979, +13.076782, +3.799438, +6.011963
1490302195.572655, 1490302195.575091, -0.122498, +1.061462, +0.190979, +13.702393, +3.723145, +4.150391
1490302195.575361, 1490302195.577767, -0.066650, +1.080505, +0.181458, +13.702393, +3.723145, +4.150391
1490302195.578036, 1490302195.580438, -0.066650, +1.080505, +0.181458, +13.992310, +3.250122, +3.677368
1490302195.580705, 1490302195.583109, -0.066650, +1.080505, +0.181458, +13.992310, +3.250122, +3.677368
1490302195.583376, 1490302195.585895, -0.066650, +1.059265, +0.166809, +12.619019, +1.068115, +2.807617
1490302195.586166, 1490302195.588570, -0.026001, +1.059265, +0.166809, +12.619019, +1.068115, +2.807617
1490302195.588837, 1490302195.591236, -0.026001, +1.059265, +0.166809, +13.092041, -1.190186, +0.183105
1490302195.591504, 1490302195.593908, -0.026001, +1.059265, +0.166809, +13.092041, -1.190186, +0.183105
1490302195.594176, 1490302195.596706, +0.010803, +1.029053, +0.173218, +12.863159, -3.631592, -0.503540
1490302195.596976, 1490302195.599376, +0.010803, +1.029053, +0.173218, +12.863159, -3.631592, -0.503540
1490302195.599645, 1490302195.602041, +0.010803, +1.029053, +0.173218, +11.932373, -7.080078, -2.334595
1490302195.602310, 1490302195.604721, +0.010803, +1.029053, +0.209839, +11.932373, -7.080078, -2.334595
1490302195.604988, 1490302195.607511, +0.029480, +0.968811, +0.209839, +13.076782, -9.017944, -4.104614
1490302195.607781, 1490302195.610181, +0.029480, +0.968811, +0.209839, +13.076782, -9.017944, -4.104614
1490302195.610449, 1490302195.612849, +0.029480, +0.968811, +0.209839, +12.374878, -11.169434, -4.501343
1490302195.613121, 1490302195.615518, -0.013550, +0.924866, +0.210938, +12.374878, -11.169434, -4.501343
1490302195.615784, 1490302195.618072, -0.013550, +0.924866, +0.210938, +12.374878, -12.420654, -6.439209
1490302195.618336, 1490302195.620620, -0.013550, +0.924866, +0.210938, +12.664795, -12.420654, -6.439209
1490302195.620886, 1490302195.623173, -0.013550, +0.924866, +0.210938, +12.664795, -12.420654, -6.576538
1490302195.623544, 1490302195.625934, -0.037537, +0.931824, +0.216614, +12.878418, -12.237549, -6.576538
1490302195.626205, 1490302195.628620, -0.037537, +0.931824, +0.216614, +12.878418, -12.237549, -7.629395
1490302195.628890, 1490302195.631306, -0.037537, +0.931824, +0.216614, +12.451172, -12.237549, -7.629395
1490302195.631577, 1490302195.633984, -0.037537, +0.931824, +0.168640, +12.451172, -12.237549, -7.888794
1490302195.634255, 1490302195.636680, -0.121033, +1.007446, +0.168640, +13.549805, -11.413574, -7.888794
1490302195.636955, 1490302195.639364, -0.121033, +1.007446, +0.168640, +13.549805, -11.413574, -3.982544
1490302195.639635, 1490302195.642048, -0.121033, +1.007446, +0.168640, +12.313843, -9.063721, -7.812500
1490302195.642317, 1490302195.644742, -0.144287, +1.115479, +0.084045, +12.313843, -9.063721, -7.812500
1490302195.645010, 1490302195.647421, -0.144287, +1.115479, +0.084045, +12.298584, -2.761841, -8.132935
1490302195.647690, 1490302195.650096, -0.144287, +1.115479, +0.084045, +12.298584, -2.761841, -8.132935
1490302195.650365, 1490302195.652771, -0.144287, +1.115479, +0.084045, +10.345459, +0.930786, -6.851196
1490302195.653042, 1490302195.655464, -0.041565, +0.988586, +0.029480, +10.345459, +0.930786, -6.851196
1490302195.655733, 1490302195.658143, -0.041565, +0.988586, +0.029480, +8.300781, +2.319336, -7.659912
1490302195.658407, 1490302195.660816, -0.041565, +0.988586, +0.029480, +8.300781, +2.319336, -7.659912
1490302195.661080, 1490302195.663490, -0.041565, +0.941711, +0.209106, +7.431030, +3.631592, -6.561279
1490302195.663754, 1490302195.666083, -0.045776, +0.939697, +0.209106, +7.431030, +3.631592, -6.561279
1490302195.666340, 1490302195.668628, -0.045776, +0.939697, +0.209106, +7.766724, +3.402710, -6.927490
1490302195.668885, 1490302195.671169, -0.045776, +0.939697, +0.209106, +7.766724, +3.402710, -6.927490
1490302195.671428, 1490302195.673716, -0.095764, +1.013489, +0.251221, +10.162354, +2.899170, -7.019043
1490302195.673976, 1490302195.676377, -0.095764, +1.013489, +0.251221, +10.162354, +2.899170, -7.019043
1490302195.676644, 1490302195.679055, -0.095764, +1.013489, +0.251221, +10.162354, +0.198364, -6.362915
1490302195.679324, 1490302195.681731, -0.095764, +1.013489, +0.251221, +10.696411, +0.198364, -6.362915
1490302195.682000, 1490302195.684449, -0.071960, +1.096069, +0.264404, +10.696411, -3.036499, -6.851196
1490302195.684717, 1490302195.687129, -0.071960, +1.096069, +0.264404, +12.435913, -3.036499, -6.851196
1490302195.687398, 1490302195.689810, -0.071960, +1.096069, +0.264404, +12.435913, -6.942749, -5.752563
1490302195.690077, 1490302195.692489, -0.071960, +1.096069, +0.247375, +13.275146, -6.332397, -5.752563
1490302195.692756, 1490302195.695170, -0.029846, +1.087646, +0.247375, +13.275146, -6.332397, -5.783081
1490302195.695439, 1490302195.697845, -0.029846, +1.087646, +0.247375, +13.671875, -10.543823, -5.783081
1490302195.698116, 1490302195.700528, -0.029846, +1.087646, +0.247375, +13.671875, -10.543823, -5.279541
1490302195.700798, 1490302195.703211, -0.081482, +1.030334, +0.201782, +16.006470, -13.412476, -5.279541
1490302195.703484, 1490302195.705924, -0.081482, +1.030334, +0.201782, +16.006470, -13.412476, -1.373291
1490302195.706195, 1490302195.708611, -0.081482, +1.030334, +0.201782, +16.571045, -15.762329, -2.990723
1490302195.708883, 1490302195.711294, -0.081482, +1.030334, +0.201782, +16.571045, -15.762329, -2.990723
1490302195.711565, 1490302195.713978, -0.125244, +1.028687, +0.216064, +17.944336, -17.730713, -1.983643
1490302195.714248, 1490302195.716556, -0.125244, +1.028687, +0.216064, +17.944336, -17.730713, -1.983643
1490302195.716818, 1490302195.719109, -0.125244, +1.028687, +0.216064, +20.034790, -17.196655, -0.442505
1490302195.719374, 1490302195.721661, -0.125244, +1.028687, +0.258179, +20.034790, -17.196655, -0.442505
1490302195.721925, 1490302195.724209, -0.176147, +1.053040, +0.258179, +20.034790, -16.235352, +2.044678
1490302195.724455, 1490302195.726738, -0.176147, +1.053040, +0.258179, +20.034790, -16.235352, +2.044678
1490302195.727109, 1490302195.729396, -0.176147, +1.053040, +0.258179, +20.736694, -15.960693, +2.380371
1490302195.729658, 1490302195.731944, -0.176147, +1.084717, +0.252136, +20.736694, -15.960693, +2.380371
1490302195.732207, 1490302195.734516, -0.161316, +1.084717, +0.252136, +21.408081, -14.404297, +4.226685
1490302195.734788, 1490302195.737196, -0.161316, +1.084717, +0.252136, +21.408081, -14.404297, +4.226685
1490302195.737467, 1490302195.739872, -0.161316, +1.084717, +0.252136, +21.408081, -14.251709, +5.050659
1490302195.740142, 1490302195.742555, -0.140259, +1.085449, +0.202515, +21.804810, -14.251709, +5.050659
1490302195.742827, 1490302195.745250, -0.140259, +1.085449, +0.202515, +21.804810, -14.251709, +6.332397
1490302195.745521, 1490302195.747935, -0.140259, +1.085449, +0.202515, +23.468018, -13.153076, +6.332397
1490302195.748205, 1490302195.750615, -0.140259, +1.085449, +0.202515, +23.468018, -13.153076, +8.178711
1490302195.750885, 1490302195.753298, -0.135864, +1.067871, +0.188782, +23.803711, -11.428833, +8.178711
1490302195.753570, 1490302195.755983, -0.135864, +1.067871, +0.188782, +23.803711, -11.428833, +7.904053
1490302195.756253, 1490302195.758663, -0.135864, +1.067871, +0.188782, +24.291992, -10.589600, +7.904053
1490302195.758935, 1490302195.761349, -0.135864, +1.088928, +0.208008, +24.291992, -10.589600, +7.904053
1490302195.761621, 1490302195.764034, -0.122864, +1.088928, +0.208008, +25.253296, -8.544922, +9.597778
1490302195.764303, 1490302195.766730, -0.122864, +1.088928, +0.208008, +25.253296, -8.544922, +9.597778
1490302195.767000, 1490302195.769411, -0.122864, +1.088928, +0.208008, +25.604248, -8.972168, +11.230469
1490302195.769683, 1490302195.772095, -0.141357, +1.116211, +0.206543, +25.604248, -8.972168, +11.230469
1490302195.772366, 1490302195.774805, -0.141357, +1.116211, +0.206543, +26.657104, -8.514404, +11.520386
1490302195.775070, 1490302195.777358, -0.141357, +1.116211, +0.206543, +26.657104, -8.514404, +11.520386
1490302195.777622, 1490302195.779911, -0.141357, +1.116211, +0.183289, +26.550293, -6.500244, +13.305664
1490302195.780174, 1490302195.782464, -0.177246, +1.148621, +0.183289, +26.550293, -6.500244, +13.305664
1490302195.782726, 1490302195.785086, -0.177246, +1.148621, +0.183289, +25.848389, -4.821777, +14.251709
1490302195.785357, 1490302195.787772, -0.177246, +1.148621, +0.183289, +25.848389, -4.821777, +14.251709
1490302195.788042, 1490302195.790457, -0.177246, +1.146973, +0.153442, +26.077271, -3.479004, +14.526367
1490302195.790727, 1490302195.793137, -0.174133, +1.146973, +0.153442, +26.077271, -3.479004, +14.526367
1490302195.793409, 1490302195.795840, -0.174133, +1.146973, +0.153442, +25.527954, -1.327515, +16.525269
1490302195.796110, 1490302195.798531, -0.174133, +1.146973, +0.153442, +25.527954, -1.327515, +16.525269
1490302195.798801, 1490302195.801264, -0.188782, +1.177917, +0.140808, +25.848389, -0.762939, +15.747070
1490302195.801537, 1490302195.803948, -0.188782, +1.177917, +0.140808, +25.848389, -0.762939, +15.747070
1490302195.804219, 1490302195.806645, -0.188782, +1.177917, +0.140808, +27.236938, +0.091553, +14.984131
1490302195.806919, 1490302195.809332, -0.188782, +1.177917, +0.140442, +27.236938, +0.091553, +14.984131
1490302195.809603, 1490302195.812016, -0.121399, +1.251160, +0.140442, +27.236938, -0.854492, +16.021729
1490302195.812288, 1490302195.814708, -0.121399, +1.251160, +0.140442, +26.565552, -0.854492, +16.021729
1490302195.814979, 1490302195.817388, -0.121399, +1.251160, +0.140442, +26.565552, -3.112793, +14.526367
1490302195.817658, 1490302195.820067, -0.125610, +1.352051, +0.114990, +26.260376, -3.112793, +14.526367
1490302195.820339, 1490302195.822750, -0.125610, +1.352051, +0.114990, +26.260376, -7.019043, +12.481689
1490302195.823021, 1490302195.825394, -0.125610, +1.352051, +0.114990, +27.969360, -5.554199, +12.481689
1490302195.825658, 1490302195.827948, -0.125610, +1.352051, +0.114990, +27.969360, -5.554199, +12.130737
1490302195.828212, 1490302195.830501, -0.143921, +1.376038, +0.134766, +29.220581, -8.270264, +12.130737
1490302195.830878, 1490302195.833165, -0.143921, +1.376038, +0.134766, +29.220581, -8.270264, +12.130737
1490302195.833430, 1490302195.835842, -0.143921, +1.376038, +0.134766, +28.381348, -11.199951, +11.230469
1490302195.836116, 1490302195.838531, -0.143921, +1.376038, +0.136963, +28.381348, -11.199951, +11.230469
1490302195.838804, 1490302195.841221, -0.178528, +1.367798, +0.136963, +29.205322, -13.961792, +9.384155
1490302195.841491, 1490302195.843902, -0.178528, +1.367798, +0.136963, +29.205322, -13.961792, +9.384155
1490302195.844172, 1490302195.846639, -0.178528, +1.367798, +0.136963, +28.976440, -15.670776, +9.918213
1490302195.846911, 1490302195.849323, -0.240967, +1.324036, +0.121399, +28.976440, -15.670776, +9.918213
1490302195.849595, 1490302195.852006, -0.240967, +1.324036, +0.121399, +27.954102, -17.471313, +10.711670
1490302195.852282, 1490302195.854710, -0.240967, +1.324036, +0.121399, +27.954102, -17.471313, +10.711670
1490302195.854985, 1490302195.857393, -0.240967, +1.324036, +0.121399, +28.640747, -18.539429, +9.429932
1490302195.857663, 1490302195.860074, -0.264404, +1.286682, +0.088989, +28.640747, -18.539429, +9.429932
1490302195.860345, 1490302195.862757, -0.264404, +1.286682, +0.088989, +29.754639, -17.959595, +9.750366
1490302195.863029, 1490302195.865404, -0.264404, +1.286682, +0.088989, +29.754639, -17.959595, +9.750366
1490302195.865666, 1490302195.867954, -0.264404, +1.272400, +0.120300, +29.098511, -17.242432, +12.268066
1490302195.868221, 1490302195.870509, -0.265869, +1.272400, +0.120300, +29.098511, -17.242432, +12.268066
1490302195.870777, 1490302195.873063, -0.265869, +1.272400, +0.120300, +29.098511, -17.929077, +13.198853
1490302195.873331, 1490302195.875816, -0.265869, +1.272400, +0.120300, +28.518677, -17.929077, +13.198853
1490302195.876084, 1490302195.878364, -0.286377, +1.264160, +0.148132, +28.518677, -18.737793, +13.488770
1490302195.878629, 1490302195.880908, -0.286377, +1.264160, +0.148132, +29.449463, -18.737793, +13.488770
1490302195.881174, 1490302195.883461, -0.286377, +1.264160, +0.148132, +29.449463, -18.737793, +14.602661
1490302195.883728, 1490302195.886115, -0.286377, +1.264160, +0.148132, +30.517578, -18.508911, +14.602661
1490302195.886390, 1490302195.888785, -0.309998, +1.243469, +0.193542, +30.517578, -18.508911, +18.508911
1490302195.889057, 1490302195.891455, -0.309998, +1.243469, +0.193542, +30.899048, -17.059326, +16.891479
1490302195.891727, 1490302195.894123, -0.309998, +1.243469, +0.193542, +30.899048, -17.059326, +16.891479
1490302195.894435, 1490302195.896816, -0.309998, +1.243469, +0.241882, +30.487061, -15.808105, +19.943237
1490302195.897086, 1490302195.899460, -0.277588, +1.239990, +0.241882, +30.487061, -15.808105, +19.943237
1490302195.899731, 1490302195.902152, -0.277588, +1.239990, +0.241882, +29.571533, -14.968872, +22.552490
1490302195.902427, 1490302195.904848, -0.277588, +1.239990, +0.241882, +29.571533, -14.968872, +22.552490
1490302195.905121, 1490302195.907529, -0.212036, +1.262695, +0.235474, +29.159546, -13.641357, +24.703979
1490302195.907803, 1490302195.910211, -0.212036, +1.262695, +0.235474, +29.159546, -13.641357, +24.703979
1490302195.910484, 1490302195.912892, -0.212036, +1.262695, +0.235474, +29.556274, -11.032104, +28.167725
1490302195.913164, 1490302195.915582, -0.212036, +1.262695, +0.235474, +29.556274, -11.032104, +28.167725
1490302195.915854, 1490302195.918262, -0.176880, +1.273682, +0.301575, +28.900146, -7.019043, +33.111572
1490302195.918536, 1490302195.920943, -0.176880, +1.273682, +0.301575, +28.900146, -7.019043, +33.111572
1490302195.921214, 1490302195.923620, -0.176880, +1.273682, +0.301575, +28.091431, +1.998901, +37.643433
1490302195.923891, 1490302195.926225, -0.176880, +1.320557, +0.315308, +28.091431, +1.998901, +37.643433
1490302195.926489, 1490302195.928778, -0.332886, +1.334656, +0.315308, +28.320312, +15.533447, +39.154053
1490302195.929044, 1490302195.931333, -0.332886, +1.334656, +0.315308, +28.320312, +15.533447, +39.154053
1490302195.931598, 1490302195.933889, -0.332886, +1.334656, +0.315308, +28.320312, +27.221680, +40.649414
1490302195.934260, 1490302195.936688, -0.280518, +1.285217, +0.260193, +29.251099, +27.221680, +40.649414
1490302195.936962, 1490302195.939374, -0.280518, +1.285217, +0.260193, +29.251099, +34.011841, +45.791626
1490302195.939650, 1490302195.942057, -0.280518, +1.285217, +0.260193, +28.884888, +34.011841, +45.791626
1490302195.942331, 1490302195.944748, -0.280518, +1.285217, +0.260193, +28.884888, +34.011841, +53.802490
1490302195.945021, 1490302195.947444, -0.049438, +1.246216, +0.292969, +25.512695, +34.698486, +53.802490
1490302195.947717, 1490302195.950128, -0.049438, +1.246216, +0.292969, +25.512695, +34.698486, +60.958862
1490302195.950401, 1490302195.952814, -0.049438, +1.246216, +0.292969, +22.888184, +30.731201, +60.958862
1490302195.953087, 1490302195.955516, -0.049438, +1.293091, +0.344788, +22.888184, +30.731201, +67.306519
1490302195.955792, 1490302195.958207, -0.013733, +1.299133, +0.344788, +22.064209, +28.411865, +67.306519
1490302195.958482, 1490302195.960895, -0.013733, +1.299133, +0.344788, +22.064209, +28.411865, +71.212769
1490302195.961167, 1490302195.963581, -0.013733, +1.299133, +0.344788, +21.606445, +28.045654, +73.516846
1490302195.963854, 1490302195.966279, +0.108032, +1.390869, +0.368408, +21.606445, +28.045654, +73.516846
1490302195.966552, 1490302195.968966, +0.108032, +1.390869, +0.368408, +20.523071, +26.596069, +79.742432
1490302195.969240, 1490302195.971650, +0.108032, +1.390869, +0.368408, +20.523071, +26.596069, +79.742432
1490302195.971924, 1490302195.974332, +0.108032, +1.390869, +0.368408, +19.592285, +22.201538, +83.663940
1490302195.974662, 1490302195.976955, +0.280334, +1.467957, +0.337646, +19.592285, +22.201538, +83.663940
1490302195.977220, 1490302195.979511, +0.280334, +1.467957, +0.337646, +19.775391, +15.518188, +87.203979
1490302195.979776, 1490302195.982063, +0.280334, +1.467957, +0.337646, +19.775391, +15.518188, +87.203979
1490302195.982328, 1490302195.984672, +0.280334, +1.528198, +0.382690, +18.539429, +6.805420, +93.048096
1490302195.984936, 1490302195.987223, +0.404480, +1.528198, +0.382690, +18.539429, +6.805420, +93.048096
1490302195.987486, 1490302195.989774, +0.404480, +1.528198, +0.382690, +17.501831, -3.463745, +96.954346
1490302195.990036, 1490302195.992322, +0.404480, +1.528198, +0.382690, +17.501831, -3.463745, +96.954346
1490302195.992586, 1490302195.994908, +0.612488, +1.669556, +0.362183, +17.501831, -17.242432, +101.654053
1490302195.995183, 1490302195.997594, +0.612488, +1.669556, +0.362183, +19.104004, -17.242432, +101.654053
1490302195.997868, 1490302196.000281, +0.612488, +1.669556, +0.362183, +19.104004, -36.773682, +107.406616
1490302196.000555, 1490302196.002964, +0.612488, +1.669556, +0.362183, +22.583008, -37.078857, +107.406616
1490302196.003238, 1490302196.005663, +0.664490, +1.853394, +0.290771, +22.583008, -60.516357, +109.512329
1490302196.005937, 1490302196.008353, +0.664490, +1.853394, +0.290771, +27.481079, -60.226440, +109.512329
1490302196.008628, 1490302196.011040, +0.664490, +1.853394, +0.290771, +27.481079, -60.226440, +113.037109
1490302196.011313, 1490302196.013721, +0.664490, +1.947144, +0.343140, +28.121948, -82.702637, +113.037109
1490302196.013997, 1490302196.016450, +0.701111, +1.954285, +0.343140, +28.121948, -82.702637, +115.081787
1490302196.016725, 1490302196.019144, +0.701111, +1.954285, +0.343140, +27.328491, -102.325439, +115.081787
1490302196.019419, 1490302196.021828, +0.701111, +1.954285, +0.343140, +27.328491, -102.325439, +118.988037
1490302196.022101, 1490302196.024518, +0.501526, +1.982483, +0.418945, +28.411865, -118.591309, +117.736816
1490302196.024791, 1490302196.027209, +0.501526, +1.982483, +0.418945, +28.411865, -118.591309, +117.736816
1490302196.027483, 1490302196.029895, +0.501526, +1.982483, +0.418945, +27.053833, -130.783081, +121.032715
1490302196.030170, 1490302196.032581, +0.501526, +1.982483, +0.418945, +27.053833, -130.783081, +121.032715
1490302196.032857, 1490302196.035244, +0.232910, +1.829956, +0.392212, +27.984619, -137.145996, +121.932983
1490302196.035629, 1490302196.037915, +0.232910, +1.829956, +0.392212, +27.984619, -137.145996, +121.932983
1490302196.038181, 1490302196.040467, +0.232910, +1.829956, +0.392212, +30.853271, -135.665894, +125.106812
1490302196.040734, 1490302196.043023, +0.232910, +1.681458, +0.296814, +30.853271, -135.665894, +125.106812
1490302196.043289, 1490302196.045684, +0.032776, +1.681458, +0.296814, +31.997681, -130.142212, +127.700806
1490302196.045958, 1490302196.048370, +0.032776, +1.681458, +0.296814, +31.997681, -130.142212, +127.700806
1490302196.048645, 1490302196.051058, +0.032776, +1.681458, +0.296814, +34.912109, -121.124268, +129.318237
1490302196.051333, 1490302196.053744, -0.129639, +1.568665, +0.240967, +34.912109, -121.124268, +129.318237
1490302196.054019, 1490302196.056438, -0.129639, +1.568665, +0.240967, +35.720825, -108.993530, +130.477905
1490302196.056712, 1490302196.059127, -0.129639, +1.568665, +0.240967, +35.720825, -108.993530, +130.477905
1490302196.059401, 1490302196.061811, -0.129639, +1.568665, +0.240967, +37.719727, -95.367432, +130.523682
1490302196.062084, 1490302196.064512, -0.128174, +1.550171, +0.165527, +37.719727, -95.367432, +130.523682
1490302196.064788, 1490302196.067203, -0.128174, +1.550171, +0.165527, +38.558960, -85.113525, +130.355835
1490302196.067478, 1490302196.069891, -0.128174, +1.550171, +0.165527, +38.558960, -85.113525, +130.355835
1490302196.070165, 1490302196.072576, -0.128174, +1.594849, +0.096863, +42.465210, -77.209473, +128.738403
1490302196.072850, 1490302196.075276, -0.034424, +1.594849, +0.096863, +40.359497, -77.209473, +128.738403
1490302196.075552, 1490302196.077965, -0.034424, +1.594849, +0.096863, +40.359497, -69.259644, +128.753662
1490302196.078239, 1490302196.080654, -0.034424, +1.594849, +0.096863, +41.625977, -69.259644, +128.753662
1490302196.080929, 1490302196.083342, +0.047424, +1.582214, +0.073792, +41.625977, -65.353394, +127.685547
1490302196.083616, 1490302196.085990, +0.047424, +1.582214, +0.073792, +43.090820, -62.637329, +127.685547
1490302196.086257, 1490302196.088543, +0.047424, +1.582214, +0.073792, +43.090820, -62.637329, +127.868652
1490302196.088808, 1490302196.091098, +0.047424, +1.582214, +0.073792, +44.738770, -55.679321, +127.868652
1490302196.091363, 1490302196.093651, +0.086609, +1.506226, +0.069946, +44.738770, -55.679321, +127.868652
1490302196.093916, 1490302196.096211, +0.086609, +1.506226, +0.069946, +44.113159, -50.689697, +127.777100
1490302196.096478, 1490302196.098764, +0.086609, +1.506226, +0.069946, +44.113159, -50.689697, +127.777100
1490302196.099029, 1490302196.101315, +0.086609, +1.412476, +0.049255, +45.288086, -47.454834, +126.296997
1490302196.101581, 1490302196.103870, +0.112610, +1.409912, +0.049255, +45.288086, -47.454834, +126.296997
1490302196.104138, 1490302196.106559, +0.112610, +1.409912, +0.049255, +44.799805, -42.861938, +126.693726
1490302196.106835, 1490302196.109249, +0.112610, +1.409912, +0.049255, +44.799805, -42.861938, +126.693726
1490302196.109525, 1490302196.111936, +0.118103, +1.277344, +0.043213, +42.602539, -38.238525, +125.991821
1490302196.112210, 1490302196.114635, +0.118103, +1.277344, +0.043213, +42.602539, -38.238525, +125.991821
1490302196.114909, 1490302196.117322, +0.118103, +1.277344, +0.043213, +42.266846, -31.951904, +122.879028
1490302196.117596, 1490302196.120008, +0.118103, +1.277344, +0.043213, +42.266846, -31.951904, +122.879028
1490302196.120282, 1490302196.122694, +0.082397, +1.092224, +0.039917, +40.115356, -24.154663, +121.353149
1490302196.122970, 1490302196.125435, +0.082397, +1.092224, +0.039917, +40.115356, -24.154663, +121.353149
1490302196.125708, 1490302196.128117, +0.082397, +1.092224, +0.039917, +36.209106, -16.906738, +119.903564
1490302196.128390, 1490302196.130799, +0.082397, +0.954712, +0.039368, +36.712646, -16.906738, +119.903564
1490302196.131074, 1490302196.133486, +0.041199, +0.954712, +0.039368, +32.806396, -8.697510, +115.341187
1490302196.133759, 1490302196.136175, +0.041199, +0.954712, +0.039368, +34.454346, -8.697510, +115.341187
1490302196.136553, 1490302196.138969, +0.041199, +0.954712, +0.039368, +34.454346, -0.839233, +112.594604
1490302196.139242, 1490302196.141657, +0.026001, +0.861694, +0.031128, +32.745361, -0.839233, +112.594604
1490302196.141930, 1490302196.144340, +0.026001, +0.861694, +0.031128, +32.745361, +6.973267, +108.398438
1490302196.144654, 1490302196.146943, +0.026001, +0.861694, +0.031128, +29.708862, +4.669189, +108.398438
1490302196.147206, 1490302196.149488, +0.026001, +0.861694, +0.031128, +29.708862, +4.669189, +102.355957
1490302196.149753, 1490302196.152045, +0.014648, +0.773071, +0.023438, +27.038574, +9.368896, +102.355957
1490302196.152309, 1490302196.154656, +0.014648, +0.773071, +0.023438, +27.038574, +9.368896, +102.355957
1490302196.154931, 1490302196.157343, +0.014648, +0.773071, +0.023438, +25.207520, +15.426636, +97.579956
1490302196.157618, 1490302196.160033, +0.014648, +0.691223, +0.030029, +25.207520, +15.426636, +97.579956
1490302196.160308, 1490302196.162712, -0.040649, +0.691223, +0.030029, +21.865845, +21.682739, +93.124390
1490302196.162986, 1490302196.165446, -0.040649, +0.691223, +0.030029, +21.865845, +21.682739, +93.124390
1490302196.165721, 1490302196.168134, -0.040649, +0.691223, +0.030029, +19.592285, +27.023315, +87.005615
1490302196.168407, 1490302196.170817, -0.088623, +0.657349, +0.021423, +19.592285, +27.023315, +87.005615
1490302196.171092, 1490302196.173503, -0.088623, +0.657349, +0.021423, +16.906738, +33.401489, +82.290649
1490302196.173777, 1490302196.176254, -0.088623, +0.657349, +0.021423, +16.906738, +33.401489, +82.290649
1490302196.176530, 1490302196.178944, -0.088623, +0.657349, -0.007507, +14.801025, +39.520264, +76.171875
1490302196.179220, 1490302196.181636, -0.120850, +0.638672, -0.007507, +14.801025, +39.520264, +76.171875
1490302196.181912, 1490302196.184328, -0.120850, +0.638672, -0.007507, +13.458252, +47.286987, +70.846558
1490302196.184655, 1490302196.187068, -0.120850, +0.638672, -0.007507, +13.458252, +47.286987, +70.846558
1490302196.187343, 1490302196.189761, -0.119934, +0.599854, -0.036987, +11.215210, +53.558350, +64.163208
1490302196.190035, 1490302196.192444, -0.119934, +0.599854, -0.036987, +11.215210, +53.558350, +64.163208
1490302196.192721, 1490302196.195115, -0.119934, +0.599854, -0.036987, +10.620117, +59.936523, +57.189941
1490302196.195382, 1490302196.197666, -0.119934, +0.599854, -0.036987, +10.620117, +59.936523, +57.189941
1490302196.197931, 1490302196.200225, -0.060791, +0.536133, -0.052551, +9.078979, +66.314697, +52.368164
1490302196.200490, 1490302196.202780, -0.060791, +0.536133, -0.052551, +9.078979, +66.314697, +52.368164
1490302196.203046, 1490302196.205677, -0.060791, +0.536133, -0.052551, +5.172729, +69.213867, +46.432495
1490302196.205955, 1490302196.208331, -0.060791, +0.536133, -0.052002, +7.507324, +69.213867, +46.432495
1490302196.208601, 1490302196.210982, -0.008423, +0.496399, -0.052002, +7.507324, +73.074341, +41.213989
1490302196.211254, 1490302196.213737, -0.008423, +0.496399, -0.052002, +7.278442, +73.074341, +41.213989
1490302196.214010, 1490302196.216402, -0.008423, +0.496399, -0.052002, +7.278442, +76.980591, +36.132812
1490302196.216674, 1490302196.219055, +0.017578, +0.397156, -0.039917, +5.172729, +75.119019, +36.132812
1490302196.219325, 1490302196.221703, +0.017578, +0.397156, -0.039917, +5.172729, +75.119019, +28.930664
1490302196.221971, 1490302196.224432, +0.017578, +0.397156, -0.039917, +4.562378, +74.920654, +28.930664
1490302196.224697, 1490302196.227112, +0.017578, +0.397156, -0.039917, +4.562378, +74.920654, +22.857666
1490302196.227385, 1490302196.229794, -0.008606, +0.311829, -0.030579, +4.287720, +75.134277, +22.857666
1490302196.230066, 1490302196.232475, -0.008606, +0.311829, -0.030579, +4.287720, +75.134277, +18.951416
1490302196.232747, 1490302196.235164, -0.008606, +0.311829, -0.030579, +2.838135, +74.371338, +15.716553
1490302196.235436, 1490302196.237845, -0.008606, +0.259827, -0.024536, +2.838135, +74.371338, +15.716553
1490302196.238116, 1490302196.240527, -0.101257, +0.259827, -0.024536, +3.463745, +74.325562, +7.568359
1490302196.240908, 1490302196.243315, -0.101257, +0.259827, -0.024536, +3.463745, +74.325562, +7.568359
1490302196.243586, 1490302196.245961, -0.101257, +0.259827, -0.024536, +2.792358, +75.164795, +1.464844
1490302196.246225, 1490302196.248511, -0.131836, +0.232727, +0.000366, +2.792358, +75.164795, +1.464844
1490302196.248773, 1490302196.251059, -0.131836, +0.232727, +0.000366, +0.930786, +77.270508, -4.852295
1490302196.251320, 1490302196.253611, -0.131836, +0.232727, +0.000366, +0.930786, +77.270508, -4.852295
1490302196.253873, 1490302196.256289, -0.131836, +0.232727, +0.000366, +1.190186, +77.743530, -12.542725
1490302196.256562, 1490302196.258973, -0.073975, +0.246643, +0.023254, +1.190186, +77.743530, -12.542725
1490302196.259244, 1490302196.261653, -0.073975, +0.246643, +0.023254, +1.358032, +76.950073, -18.600464
1490302196.261923, 1490302196.264336, -0.073975, +0.246643, +0.023254, +1.358032, +76.950073, -18.600464
1490302196.264660, 1490302196.267079, -0.073975, +0.225220, +0.027832, +0.747681, +72.128296, -25.833130
1490302196.267352, 1490302196.269767, -0.014832, +0.225220, +0.027832, +0.747681, +72.128296, -25.833130
1490302196.270039, 1490302196.272454, -0.014832, +0.225220, +0.027832, +1.846313, +66.970825, -33.966064
1490302196.272725, 1490302196.275152, -0.014832, +0.225220, +0.027832, +1.846313, +66.970825, -33.966064
1490302196.275424, 1490302196.277836, +0.017395, +0.206909, +0.049255, +1.480103, +63.339233, -40.557861
1490302196.278108, 1490302196.280519, +0.017395, +0.206909, +0.049255, +1.480103, +63.339233, -40.557861
1490302196.280792, 1490302196.283202, +0.017395, +0.206909, +0.049255, +1.480103, +57.601929, -48.355103
1490302196.283475, 1490302196.285892, +0.017395, +0.206909, +0.049255, +1.861572, +57.601929, -48.355103
1490302196.286163, 1490302196.288576, +0.046143, +0.157471, +0.056580, +1.861572, +53.573608, -55.114746
1490302196.288847, 1490302196.291259, +0.046143, +0.157471, +0.056580, +3.143311, +53.573608, -55.114746
1490302196.291530, 1490302196.293941, +0.046143, +0.157471, +0.056580, +3.143311, +49.667358, -60.729980
1490302196.294214, 1490302196.296529, +0.046143, +0.124146, +0.068298, +2.746582, +50.323486, -60.729980
1490302196.296794, 1490302196.299081, +0.034790, +0.124146, +0.068298, +2.746582, +50.323486, -68.542480
1490302196.299346, 1490302196.301634, +0.034790, +0.124146, +0.068298, +3.067017, +47.378540, -68.695068
1490302196.301899, 1490302196.304186, +0.034790, +0.124146, +0.068298, +3.067017, +47.378540, -68.695068
1490302196.304460, 1490302196.306871, -0.013916, +0.108582, +0.065735, +3.677368, +46.936035, -75.790405
1490302196.307143, 1490302196.309552, -0.013916, +0.108582, +0.065735, +3.677368, +46.936035, -75.790405
1490302196.309825, 1490302196.312233, -0.013916, +0.108582, +0.065735, +3.005981, +47.409058, -81.954956
1490302196.312507, 1490302196.314929, -0.013916, +0.108582, +0.065735, +3.005981, +47.409058, -81.954956
1490302196.315201, 1490302196.317614, -0.030762, +0.133667, +0.043945, +2.075195, +46.722412, -88.470459
1490302196.317887, 1490302196.320295, -0.030762, +0.133667, +0.043945, +2.075195, +46.722412, -88.470459
1490302196.320567, 1490302196.322979, -0.030762, +0.133667, +0.043945, +2.716064, +45.593262, -94.711304
1490302196.323253, 1490302196.325679, -0.030762, +0.153809, +0.017395, +2.716064, +45.593262, -94.711304
1490302196.325950, 1490302196.328362, -0.026917, +0.153809, +0.017395, +3.997803, +44.891357, -100.173950
1490302196.328634, 1490302196.331048, -0.026917, +0.153809, +0.017395, +3.997803, +44.891357, -100.173950
1490302196.331319, 1490302196.333731, -0.026917, +0.153809, +0.017395, +3.890991, +44.174194, -104.187012
1490302196.334004, 1490302196.336357, -0.033142, +0.174683, +0.009705, +3.890991, +44.174194, -104.187012
1490302196.336623, 1490302196.338910, -0.033142, +0.174683, +0.009705, +4.455566, +44.342041, -108.993530
1490302196.339175, 1490302196.341462, -0.033142, +0.174683, +0.009705, +4.455566, +44.342041, -108.993530
1490302196.341727, 1490302196.344014, -0.033142, +0.174683, +0.009705, +4.455566, +45.318604, -113.128662
1490302196.344388, 1490302196.346849, -0.016479, +0.228333, +0.004578, +3.967285, +45.318604, -113.128662
1490302196.347121, 1490302196.349534, -0.016479, +0.228333, +0.004578, +3.967285, +45.196533, -116.729736
1490302196.349806, 1490302196.352216, -0.016479, +0.228333, +0.004578, +2.822876, +45.196533, -116.729736
1490302196.352487, 1490302196.354913, +0.030396, +0.304688, +0.008240, +2.822876, +45.196533, -122.009277
1490302196.355186, 1490302196.357602, +0.023621, +0.304688, +0.008240, +2.563477, +43.640137, -122.009277
1490302196.357876, 1490302196.360286, +0.023621, +0.304688, +0.008240, +2.563477, +43.640137, -125.793457
1490302196.360560, 1490302196.362973, +0.023621, +0.304688, +0.008240, +3.433228, +42.877197, -125.793457
1490302196.363246, 1490302196.365669, +0.014099, +0.317688, -0.000366, +3.433228, +42.877197, -128.616333
1490302196.365940, 1490302196.368354, +0.014099, +0.317688, -0.000366, +2.914429, +42.358398, -128.616333
1490302196.368625, 1490302196.371038, +0.014099, +0.317688, -0.000366, +2.914429, +42.358398, -136.428833
1490302196.371309, 1490302196.373721, +0.014099, +0.317688, -0.028748, +4.043579, +43.182373, -133.209229
1490302196.373993, 1490302196.376375, +0.052551, +0.309265, -0.028748, +4.043579, +43.182373, -133.209229
1490302196.376641, 1490302196.378927, +0.052551, +0.309265, -0.028748, +4.211426, +43.975830, -135.086060
1490302196.379191, 1490302196.381478, +0.052551, +0.309265, -0.028748, +4.211426, +43.975830, -135.086060
1490302196.381742, 1490302196.384028, +0.099426, +0.334351, -0.052917, +4.165649, +43.060303, -137.954712
1490302196.384292, 1490302196.386590, +0.130737, +0.334351, -0.052917, +4.165649, +43.060303, -137.954712
1490302196.386854, 1490302196.389140, +0.130737, +0.334351, -0.052917, +5.065918, +43.350220, -139.877319
1490302196.389405, 1490302196.391685, +0.130737, +0.334351, -0.052917, +5.065918, +43.350220, -139.877319
1490302196.391950, 1490302196.394231, +0.138977, +0.372437, -0.053284, +4.318237, +44.189453, -140.747070
1490302196.394505, 1490302196.396913, +0.138977, +0.372437, -0.053284, +4.318237, +44.189453, -140.747070
1490302196.397185, 1490302196.399597, +0.138977, +0.372437, -0.053284, +4.318237, +46.325684, -142.623901
1490302196.399871, 1490302196.402285, +0.138977, +0.372437, -0.053284, +5.493164, +46.325684, -142.623901
1490302196.402557, 1490302196.404975, +0.158752, +0.368408, -0.062988, +5.493164, +49.987793, -142.135620
1490302196.405245, 1490302196.407660, +0.158752, +0.368408, -0.062988, +5.752563, +49.987793, -142.135620
1490302196.407931, 1490302196.410348, +0.158752, +0.368408, -0.062988, +5.752563, +53.894043, -142.471313
1490302196.410619, 1490302196.413034, +0.158752, +0.389282, -0.070679, +4.959106, +52.185059, -142.471313
1490302196.413305, 1490302196.415729, +0.181641, +0.389282, -0.070679, +4.959106, +52.185059, -143.585205
1490302196.416004, 1490302196.418416, +0.181641, +0.389282, -0.070679, +5.935669, +54.260254, -143.585205
1490302196.418686, 1490302196.421096, +0.181641, +0.389282, -0.070679, +5.935669, +54.260254, -142.349243
1490302196.421366, 1490302196.423779, +0.207642, +0.417297, -0.097229, +7.308960, +57.174683, -142.349243
1490302196.424050, 1490302196.426370, +0.207642, +0.417297, -0.097229, +7.308960, +57.174683, -142.349243
1490302196.426635, 1490302196.428920, +0.207642, +0.417297, -0.097229, +7.659912, +58.715820, -140.838623
1490302196.429185, 1490302196.431473, +0.207642, +0.417297, -0.097229, +7.659912, +58.715820, -140.838623
1490302196.431738, 1490302196.434022, +0.247925, +0.466003, -0.103638, +8.682251, +60.897827, -140.792847
1490302196.434289, 1490302196.436703, +0.247925, +0.466003, -0.103638, +8.682251, +60.897827, -140.792847
1490302196.436978, 1490302196.439391, +0.247925, +0.466003, -0.103638, +9.735107, +64.773560, -138.000488
1490302196.439663, 1490302196.442077, +0.247925, +0.606628, -0.091736, +9.735107, +64.773560, -138.000488
1490302196.442349, 1490302196.444768, +0.288574, +0.572021, -0.091736, +10.253906, +68.176270, -136.123657
1490302196.445043, 1490302196.447458, +0.288574, +0.572021, -0.091736, +10.253906, +68.176270, -136.123657
1490302196.447839, 1490302196.450249, +0.288574, +0.572021, -0.091736, +12.725830, +72.875977, -135.025024
1490302196.450524, 1490302196.452940, +0.359985, +0.687378, -0.076904, +12.725830, +72.875977, -135.025024
1490302196.453216, 1490302196.455637, +0.359985, +0.687378, -0.076904, +13.931274, +78.872681, -131.576538
1490302196.455911, 1490302196.458327, +0.359985, +0.687378, -0.076904, +13.931274, +78.872681, -131.576538
1490302196.458601, 1490302196.461015, +0.359985, +0.687378, -0.030029, +15.151978, +83.679199, -128.875732
1490302196.461291, 1490302196.463702, +0.449524, +0.767395, -0.046692, +15.151978, +83.679199, -128.875732
1490302196.463977, 1490302196.466440, +0.449524, +0.767395, -0.046692, +18.035889, +89.538574, -126.678467
1490302196.466715, 1490302196.469128, +0.449524, +0.767395, -0.046692, +18.035889, +89.538574, -126.678467
1490302196.469402, 1490302196.471816, +0.543274, +0.801270, +0.037354, +18.035889, +93.597412, -122.222900
1490302196.472092, 1490302196.474510, +0.515625, +0.801270, +0.037354, +19.134521, +93.597412, -122.222900
1490302196.474780, 1490302196.477069, +0.515625, +0.801270, +0.037354, +19.134521, +95.062256, -120.071411
1490302196.477337, 1490302196.479627, +0.515625, +0.801270, +0.037354, +22.140503, +95.062256, -120.071411
1490302196.479897, 1490302196.482184, +0.576050, +0.791748, +0.118652, +22.140503, +95.062256, -117.034912
1490302196.482451, 1490302196.484744, +0.576050, +0.791748, +0.118652, +24.795532, +94.207764, -117.034912
1490302196.485011, 1490302196.487296, +0.576050, +0.791748, +0.118652, +24.795532, +94.207764, -117.034912
1490302196.487563, 1490302196.489847, +0.576050, +0.791748, +0.118652, +26.458740, +89.538574, -115.509033
1490302196.490112, 1490302196.492395, +0.631348, +0.734985, +0.172485, +26.458740, +89.538574, -115.509033
1490302196.492660, 1490302196.494989, +0.631348, +0.734985, +0.172485, +29.205322, +83.190918, -113.159180
1490302196.495263, 1490302196.497676, +0.631348, +0.734985, +0.172485, +29.205322, +83.190918, -113.159180
1490302196.497949, 1490302196.500361, +0.631348, +0.734985, +0.147400, +30.273438, +73.623657, -110.992432
1490302196.500636, 1490302196.503048, +0.655518, +0.698364, +0.147400, +30.273438, +73.623657, -110.992432
1490302196.503323, 1490302196.505745, +0.655518, +0.698364, +0.147400, +32.836914, +63.934326, -110.107422
1490302196.506020, 1490302196.508433, +0.655518, +0.698364, +0.147400, +32.836914, +63.934326, -110.107422
1490302196.508707, 1490302196.511122, +0.636841, +0.744324, +0.190979, +34.225464, +57.632446, -106.246948
1490302196.511397, 1490302196.513814, +0.636841, +0.744324, +0.190979, +34.225464, +57.632446, -106.246948
1490302196.514088, 1490302196.516511, +0.636841, +0.744324, +0.190979, +34.347534, +53.283691, -102.706909
1490302196.516786, 1490302196.519198, +0.636841, +0.744324, +0.190979, +34.347534, +53.283691, -102.706909
1490302196.519472, 1490302196.521887, +0.624390, +0.886230, +0.220459, +35.552979, +49.346924, -100.097656
1490302196.522160, 1490302196.524579, +0.624390, +0.886230, +0.220459, +35.552979, +49.346924, -100.097656
1490302196.524853, 1490302196.527265, +0.624390, +0.886230, +0.220459, +37.246704, +45.852661, -95.977783
1490302196.527539, 1490302196.529948, +0.624390, +0.979797, +0.264954, +37.246704, +45.852661, -95.977783
1490302196.530221, 1490302196.532627, +0.638123, +0.979797, +0.264954, +37.246704, +44.372559, -91.323853
1490302196.532901, 1490302196.535284, +0.638123, +0.979797, +0.264954, +36.849976, +44.372559, -91.323853
1490302196.535550, 1490302196.537838, +0.638123, +0.979797, +0.264954, +36.849976, +44.372559, -87.890625
1490302196.538103, 1490302196.540395, +0.643433, +1.054688, +0.320984, +36.605835, +44.006348, -87.890625
1490302196.540661, 1490302196.542951, +0.643433, +1.054688, +0.320984, +36.605835, +44.006348, -83.984375
1490302196.543216, 1490302196.545571, +0.643433, +1.054688, +0.320984, +37.384033, +44.418335, -83.724976
1490302196.545844, 1490302196.548259, +0.643433, +1.054688, +0.320984, +37.384033, +44.418335, -83.724976
1490302196.548641, 1490302196.551057, +0.653687, +1.088013, +0.315857, +37.551880, +43.411255, -78.430176
1490302196.551332, 1490302196.553741, +0.653687, +1.088013, +0.315857, +37.551880, +43.411255, -78.430176
1490302196.554015, 1490302196.556441, +0.653687, +1.088013, +0.315857, +37.399292, +39.627075, -75.164795
1490302196.556714, 1490302196.559129, +0.653687, +1.073730, +0.309265, +37.399292, +39.627075, -75.164795
1490302196.559401, 1490302196.561815, +0.700012, +1.073730, +0.309265, +37.689209, +35.903931, -69.976807
1490302196.562089, 1490302196.564512, +0.700012, +1.073730, +0.309265, +37.689209, +35.903931, -69.976807
1490302196.564787, 1490302196.567196, +0.700012, +1.073730, +0.309265, +37.033081, +30.075073, -65.246582
1490302196.567469, 1490302196.569885, +0.693787, +1.004517, +0.301575, +37.033081, +30.075073, -65.246582
1490302196.570158, 1490302196.572573, +0.693787, +1.004517, +0.301575, +37.887573, +24.078369, -61.340332
1490302196.572845, 1490302196.575270, +0.693787, +1.004517, +0.301575, +37.887573, +24.078369, -61.340332
1490302196.575544, 1490302196.577960, +0.693787, +1.004517, +0.301575, +37.872314, +18.936157, -55.999756
1490302196.578233, 1490302196.580650, +0.610107, +0.878540, +0.284363, +37.872314, +18.936157, -55.999756
1490302196.580926, 1490302196.583340, +0.610107, +0.878540, +0.284363, +36.880493, +13.366699, -52.490234
1490302196.583612, 1490302196.585958, +0.610107, +0.878540, +0.284363, +36.880493, +13.366699, -52.490234
1490302196.586223, 1490302196.588510, +0.469482, +0.738464, +0.241882, +37.155151, +7.949829, -50.109863
1490302196.588772, 1490302196.591064, +0.514160, +0.738464, +0.241882, +37.155151, +7.949829, -50.109863
1490302196.591326, 1490302196.593617, +0.514160, +0.738464, +0.241882, +37.155151, +3.875732, -46.905518
1490302196.593879, 1490302196.596190, +0.514160, +0.738464, +0.241882, +37.139893, +3.875732, -46.905518
1490302196.596452, 1490302196.598740, +0.373352, +0.653870, +0.220459, +37.139893, -0.030518, -43.930054
1490302196.599006, 1490302196.601299, +0.373352, +0.653870, +0.220459, +35.720825, -0.457764, -43.930054
1490302196.601562, 1490302196.603846, +0.373352, +0.653870, +0.220459, +35.720825, -0.457764, -40.023804
1490302196.604109, 1490302196.606616, +0.373352, +0.653870, +0.220459, +35.003662, -3.601074, -42.922974
1490302196.606888, 1490302196.609287, +0.252502, +0.616882, +0.195374, +35.003662, -3.601074, -42.922974
1490302196.609557, 1490302196.611955, +0.252502, +0.616882, +0.195374, +33.737183, -5.142212, -41.076660
1490302196.612225, 1490302196.614633, +0.252502, +0.616882, +0.195374, +33.737183, -5.142212, -41.076660
1490302196.614904, 1490302196.617308, +0.252502, +0.570007, +0.184937, +31.311035, -6.530762, -39.169312
1490302196.617580, 1490302196.619974, +0.265320, +0.578430, +0.184937, +31.311035, -6.530762, -39.169312
1490302196.620246, 1490302196.622640, +0.265320, +0.578430, +0.184937, +29.251099, -11.383057, -34.484863
1490302196.622913, 1490302196.625330, +0.265320, +0.578430, +0.184937, +29.251099, -11.383057, -34.484863
1490302196.625604, 1490302196.628005, +1.839478, +1.278625, +0.924500, +14.343262, -29.083252, -28.259277
1490302196.628276, 1490302196.630677, +1.839478, +1.278625, +0.924500, +14.343262, -29.083252, -28.259277
1490302196.630949, 1490302196.633351, +1.839478, +1.278625, +0.924500, -9.368896, -30.868530, -12.390137
1490302196.633621, 1490302196.636036, +1.839478, +1.278625, +0.924500, -9.368896, -30.868530, -12.390137
1490302196.636306, 1490302196.638706, +3.154724, +4.252075, +2.931335, -32.394409, -18.585205, +7.171631
1490302196.638973, 1490302196.641376, +3.154724, +4.252075, +2.931335, -32.394409, -18.585205, +7.171631
1490302196.641643, 1490302196.644042, +3.154724, +4.252075, +2.931335, +31.036377, +75.942993, +39.215088
1490302196.644311, 1490302196.646722, +3.154724, +5.511108, -0.496033, +31.036377, +75.942993, +39.215088
1490302196.646995, 1490302196.649398, -0.538330, +5.511108, -0.496033, +98.358154, +79.101562, +47.821045
1490302196.649674, 1490302196.652076, -0.538330, +5.511108, -0.496033, +98.358154, +79.101562, +47.821045
1490302196.652458, 1490302196.654878, -0.538330, +5.511108, -0.496033, +62.088013, -34.194946, +40.222168
1490302196.655153, 1490302196.657564, -2.042725, +0.620361, -0.881653, +62.088013, -34.194946, +40.222168
1490302196.657837, 1490302196.660248, -2.042725, +0.620361, -0.881653, +23.025513, -73.150635, +32.348633
1490302196.660523, 1490302196.662932, -2.042725, +0.620361, -0.881653, +20.187378, -73.150635, +32.348633
1490302196.663207, 1490302196.665665, -2.042725, +0.620361, -0.598572, -7.156372, -61.477661, +26.824951
1490302196.665936, 1490302196.668350, -0.775085, -0.745972, -0.598572, -7.125854, -61.477661, +26.824951
1490302196.668620, 1490302196.671031, -0.775085, -0.745972, -0.598572, -7.125854, -38.040161, +24.047852
1490302196.671303, 1490302196.673712, -0.775085, -0.745972, -0.598572, -10.543823, -35.705566, +24.047852
1490302196.673987, 1490302196.676443, +0.097595, +0.216980, -0.015747, -10.543823, -20.080566, +27.938843
1490302196.676719, 1490302196.679130, +0.097595, +0.216980, -0.015747, -11.550903, -20.996094, +27.938843
1490302196.679403, 1490302196.681817, +0.097595, +0.216980, -0.015747, -11.550903, -20.996094, +30.151367
1490302196.682092, 1490302196.684520, +0.097595, +0.216980, -0.015747, -4.562378, -10.696411, +30.151367
1490302196.684792, 1490302196.687207, -0.110596, +1.191833, +0.379395, -4.562378, -10.696411, +25.299072
1490302196.687481, 1490302196.689892, -0.110596, +1.191833, +0.379395, -0.106812, +5.767822, +25.299072
1490302196.690162, 1490302196.692575, -0.110596, +1.191833, +0.379395, -0.106812, +5.767822, +17.486572
1490302196.692844, 1490302196.695228, -0.110596, +0.857483, +0.456299, +0.167847, +27.267456, +19.195557
1490302196.695492, 1490302196.697777, +0.101624, +0.857483, +0.456299, +0.167847, +27.267456, +19.195557
1490302196.698040, 1490302196.700327, +0.101624, +0.857483, +0.456299, +0.442505, +37.399292, +20.538330
1490302196.700591, 1490302196.702881, +0.101624, +0.857483, +0.456299, +0.442505, +37.399292, +20.538330
1490302196.703144, 1490302196.705509, +0.325012, +0.533020, +0.215698, +0.900269, +33.645630, +24.795532
1490302196.705779, 1490302196.708187, +0.325012, +0.533020, +0.215698, +0.900269, +33.645630, +24.795532
1490302196.708459, 1490302196.710868, +0.325012, +0.533020, +0.215698, +1.525879, +29.663086, +25.115967
1490302196.711140, 1490302196.713547, +0.325012, +0.533020, +0.215698, +1.525879, +29.663086, +25.115967
1490302196.713819, 1490302196.716255, +0.180542, +0.795044, +0.093201, +0.152588, +23.803711, +25.070190
1490302196.716527, 1490302196.718939, +0.180542, +0.795044, +0.093201, +0.152588, +23.803711, +25.070190
1490302196.719210, 1490302196.721629, +0.180542, +0.795044, +0.093201, -1.434326, +17.028809, +22.064209
1490302196.721900, 1490302196.724316, +0.180542, +1.170044, +0.053284, -1.434326, +17.028809, +22.064209
1490302196.724596, 1490302196.727006, -0.006775, +1.135437, +0.053284, -1.663208, +11.917114, +19.500732
1490302196.727280, 1490302196.729692, -0.006775, +1.135437, +0.053284, -1.663208, +11.917114, +19.500732
1490302196.729963, 1490302196.732379, -0.006775, +1.135437, +0.053284, -4.196167, +8.514404, +19.805908
1490302196.732647, 1490302196.735063, -0.156189, +1.293823, -0.014648, -4.196167, +8.514404, +19.805908
1490302196.735331, 1490302196.737746, -0.156189, +1.293823, -0.014648, -4.196167, +4.394531, +18.768311
1490302196.738013, 1490302196.740429, -0.156189, +1.293823, -0.014648, -4.684448, +4.394531, +18.768311
1490302196.740698, 1490302196.743111, -0.156189, +1.293823, -0.014648, -4.684448, +1.480103, +19.393921
1490302196.743378, 1490302196.745778, -0.089355, +1.214172, +0.013733, -3.784180, +1.480103, +19.393921
1490302196.746039, 1490302196.748324, -0.089355, +1.214172, +0.013733, -3.784180, +1.480103, +21.392822
1490302196.748585, 1490302196.750871, -0.089355, +1.214172, +0.013733, -6.256104, +0.289917, +21.392822
1490302196.751132, 1490302196.753416, -0.089355, +1.073547, +0.126526, -6.256104, +0.289917, +21.392822
1490302196.753676, 1490302196.756084, +0.039185, +1.065491, +0.126526, -7.217407, +1.663208, +21.438599
1490302196.756472, 1490302196.758886, +0.039185, +1.065491, +0.126526, -7.217407, +1.663208, +21.438599
1490302196.759155, 1490302196.761567, +0.039185, +1.065491, +0.126526, -8.865356, +5.889893, +21.728516
1490302196.761835, 1490302196.764246, +0.072876, +0.891174, +0.170837, -8.865356, +5.889893, +21.728516
1490302196.764527, 1490302196.766941, +0.072876, +0.891174, +0.170837, -8.956909, +10.101318, +20.187378
1490302196.767215, 1490302196.769631, +0.072876, +0.891174, +0.170837, -8.956909, +10.101318, +20.187378
1490302196.769904, 1490302196.772321, +0.072876, +0.891174, +0.170837, -7.568359, +12.344360, +18.951416
1490302196.772591, 1490302196.775045, +0.109863, +0.812988, +0.164246, -7.568359, +12.344360, +18.951416
1490302196.775316, 1490302196.777731, +0.109863, +0.812988, +0.164246, -8.377075, +10.910034, +17.791748
1490302196.778004, 1490302196.780417, +0.109863, +0.812988, +0.164246, -8.377075, +10.910034, +17.791748
1490302196.780690, 1490302196.783098, +0.109863, +0.911316, +0.161316, -7.705688, +8.209229, +15.014648
1490302196.783368, 1490302196.785830, +0.054749, +0.911316, +0.161316, -7.705688, +8.209229, +15.014648
1490302196.786099, 1490302196.788508, +0.054749, +0.911316, +0.161316, -5.844116, +6.683350, +15.319824
1490302196.788778, 1490302196.791191, +0.054749, +0.911316, +0.161316, -5.844116, +6.683350, +15.319824
1490302196.791459, 1490302196.793867, -0.017944, +0.980713, +0.159302, -5.569458, +5.142212, +15.884399
1490302196.794137, 1490302196.796451, -0.017944, +0.980713, +0.159302, -5.569458, +5.142212, +15.884399
1490302196.796713, 1490302196.799001, -0.017944, +0.980713, +0.159302, -3.341675, +4.806519, +14.831543
1490302196.799261, 1490302196.801551, -0.017944, +0.980713, +0.159302, -3.341675, +4.806519, +14.831543
1490302196.801813, 1490302196.804100, +0.009705, +1.037842, +0.147217, -3.341675, +4.776001, +15.472412
1490302196.804362, 1490302196.806775, +0.009705, +1.037842, +0.147217, -1.770020, +4.776001, +15.472412
1490302196.807046, 1490302196.809456, +0.009705, +1.037842, +0.147217, -1.770020, +0.869751, +15.060425
1490302196.809728, 1490302196.812139, +0.009705, +1.041321, +0.103088, -1.510620, +3.692627, +15.060425
1490302196.812407, 1490302196.814830, +0.061707, +1.041321, +0.103088, -1.510620, +3.692627, +13.244629
1490302196.815098, 1490302196.817513, +0.061707, +1.041321, +0.103088, -0.595093, +3.509521, +13.244629
1490302196.817782, 1490302196.820192, +0.061707, +1.041321, +0.103088, -0.595093, +3.509521, +13.473511
1490302196.820462, 1490302196.822874, +0.079834, +1.031799, +0.149231, -0.869751, +4.486084, +13.473511
1490302196.823143, 1490302196.825557, +0.079834, +1.031799, +0.149231, -0.869751, +4.486084, +9.567261
1490302196.825823, 1490302196.828236, +0.079834, +1.031799, +0.149231, -1.785278, +10.253906, +10.940552
1490302196.828505, 1490302196.830923, +0.079834, +1.031799, +0.196106, -1.785278, +10.253906, +10.940552
1490302196.831193, 1490302196.833607, -0.031494, +1.032898, +0.197937, -0.411987, +26.901245, +6.393433
1490302196.833876, 1490302196.836321, -0.031494, +1.032898, +0.197937, -0.411987, +26.901245, +6.393433
1490302196.836590, 1490302196.839001, -0.031494, +1.032898, +0.197937, -0.213623, +42.221069, +3.112793
1490302196.839270, 1490302196.841685, -0.031494, +0.997009, +0.185852, -0.213623, +42.221069, +3.112793
1490302196.841954, 1490302196.844362, -0.032959, +0.997009, +0.185852, +0.640869, +46.569824, +0.259399
1490302196.844686, 1490302196.846979, -0.032959, +0.997009, +0.185852, +0.640869, +46.569824, +0.259399
1490302196.847241, 1490302196.849526, -0.032959, +0.997009, +0.185852, +2.929688, +43.609619, +0.854492
1490302196.849787, 1490302196.852073, +0.029114, +0.940063, +0.200317, +2.929688, +43.609619, +0.854492
1490302196.852335, 1490302196.854658, +0.029114, +0.940063, +0.200317, +3.234863, +39.611816, +3.753662
1490302196.854920, 1490302196.857202, +0.029114, +0.940063, +0.200317, +3.234863, +39.611816, +3.753662
1490302196.857463, 1490302196.859746, +0.029114, +0.940063, +0.200317, +3.234863, +35.995483, +5.905151
1490302196.860111, 1490302196.862402, +0.068298, +0.938599, +0.195923, +3.173828, +35.995483, +5.905151
1490302196.862663, 1490302196.864989, +0.068298, +0.938599, +0.195923, +3.173828, +32.089233, +7.766724
1490302196.865258, 1490302196.867667, +0.068298, +0.938599, +0.195923, +4.623413, +32.821655, +7.766724
1490302196.867934, 1490302196.870345, +0.068298, +0.938599, +0.193909, +4.623413, +32.821655, +8.636475
1490302196.870614, 1490302196.873021, +0.023254, +0.952698, +0.193909, +4.302979, +30.303955, +8.636475
1490302196.873291, 1490302196.875723, +0.023254, +0.952698, +0.193909, +4.302979, +30.303955, +7.339478
1490302196.875993, 1490302196.878406, +0.023254, +0.952698, +0.193909, +4.272461, +26.931763, +7.339478
1490302196.878675, 1490302196.881085, +0.059509, +0.988037, +0.168823, +4.272461, +26.931763, +7.339478
1490302196.881352, 1490302196.883763, +0.059509, +0.988037, +0.168823, +5.828857, +24.169922, +6.088257
1490302196.884032, 1490302196.886448, +0.059509, +0.988037, +0.168823, +5.828857, +24.169922, +6.088257
1490302196.886716, 1490302196.889131, +0.059509, +0.988037, +0.168823, +7.278442, +22.018433, +5.554199
1490302196.889400, 1490302196.891816, +0.067383, +1.055603, +0.136780, +7.278442, +22.018433, +5.554199
1490302196.892086, 1490302196.894507, +0.067383, +1.055603, +0.136780, +8.529663, +19.515991, +3.311157
1490302196.894776, 1490302196.897188, +0.067383, +1.055603, +0.136780, +8.529663, +19.515991, +3.311157
1490302196.897456, 1490302196.899870, +0.067383, +1.040588, +0.135681, +11.306763, +19.210815, +1.342773
1490302196.900140, 1490302196.902551, +0.080566, +1.040588, +0.135681, +11.306763, +19.210815, +1.342773
1490302196.902822, 1490302196.905211, +0.080566, +1.040588, +0.135681, +11.993408, +20.675659, +0.808716
1490302196.905476, 1490302196.907766, +0.080566, +1.040588, +0.135681, +11.993408, +20.675659, +0.808716
1490302196.908030, 1490302196.910322, +0.076904, +0.996094, +0.149048, +11.840820, +20.904541, -1.541138
1490302196.910588, 1490302196.912875, +0.076904, +0.996094, +0.149048, +11.840820, +20.904541, -1.541138
1490302196.913141, 1490302196.915506, +0.076904, +0.996094, +0.149048, +13.290405, +21.438599, -3.906250
1490302196.915779, 1490302196.918191, +0.076904, +0.996094, +0.149048, +13.290405, +21.438599, -3.906250
1490302196.918462, 1490302196.920877, +0.100708, +0.962769, +0.188965, +14.190674, +22.064209, -3.845215
1490302196.921149, 1490302196.923561, +0.100708, +0.962769, +0.188965, +14.190674, +22.064209, -3.845215
1490302196.923832, 1490302196.926254, +0.100708, +0.962769, +0.188965, +14.190674, +19.897461, -5.340576
1490302196.926526, 1490302196.928936, +0.100708, +0.969177, +0.190613, +13.549805, +19.897461, -5.340576
1490302196.929208, 1490302196.931618, +0.068481, +0.969177, +0.190613, +13.549805, +18.081665, -7.186890
1490302196.931890, 1490302196.934301, +0.068481, +0.969177, +0.190613, +14.572144, +18.081665, -7.186890
1490302196.934571, 1490302196.936983, +0.068481, +0.969177, +0.190613, +14.572144, +18.081665, -7.110596
1490302196.937255, 1490302196.939669, +0.054932, +1.007446, +0.158752, +13.809204, +17.105103, -7.110596
1490302196.939940, 1490302196.942355, +0.054932, +1.007446, +0.158752, +13.809204, +17.105103, -8.499146
1490302196.942628, 1490302196.945046, +0.054932, +1.007446, +0.158752, +12.695312, +15.899658, -8.499146
1490302196.945319, 1490302196.947723, +0.054932, +1.007446, +0.111877, +12.695312, +15.899658, -10.437012
1490302196.947997, 1490302196.950407, +0.048157, +1.023926, +0.135681, +13.473511, +14.770508, -10.437012
1490302196.950680, 1490302196.953097, +0.048157, +1.023926, +0.135681, +13.473511, +14.770508, -10.437012
1490302196.953372, 1490302196.955758, +0.048157, +1.023926, +0.135681, +13.305664, +15.029907, -10.635376
1490302196.956024, 1490302196.958314, +0.001282, +1.004883, +0.172485, +13.305664, +15.029907, -10.635376
1490302196.958581, 1490302196.960866, +0.010071, +1.004883, +0.172485, +12.359619, +14.236450, -11.581421
1490302196.961133, 1490302196.963421, +0.010071, +1.004883, +0.172485, +12.359619, +14.236450, -11.581421
1490302196.963791, 1490302196.966188, +0.010071, +1.004883, +0.172485, +14.358521, +13.778687, -13.854980
1490302196.966463, 1490302196.968876, +0.026917, +0.985107, +0.222656, +14.358521, +13.778687, -13.854980
1490302196.969150, 1490302196.971569, +0.026917, +0.985107, +0.222656, +14.739990, +11.749268, -14.038086
1490302196.971843, 1490302196.974260, +0.026917, +0.985107, +0.222656, +14.739990, +11.749268, -14.038086
1490302196.974545, 1490302196.976959, +0.026917, +0.985107, +0.222656, +13.717651, +8.392334, -14.923096
1490302196.977231, 1490302196.979646, +0.074524, +0.991699, +0.214966, +13.717651, +8.392334, -14.923096
1490302196.979918, 1490302196.982330, +0.074524, +0.991699, +0.214966, +14.022827, +5.783081, -16.876221
1490302196.982603, 1490302196.985036, +0.074524, +0.991699, +0.214966, +14.022827, +5.783081, -16.876221
1490302196.985301, 1490302196.987588, +0.064636, +0.995728, +0.162964, +14.709473, +3.738403, -17.745972
1490302196.987853, 1490302196.990140, +0.064636, +0.995728, +0.162964, +14.709473, +3.738403, -17.745972
1490302196.990404, 1490302196.992696, +0.064636, +0.995728, +0.162964, +14.709473, +1.632690, -18.524170
1490302196.992961, 1490302196.995429, +0.064636, +0.995728, +0.162964, +14.389038, +1.632690, -18.524170
1490302196.995701, 1490302196.998121, +0.057495, +0.999939, +0.169922, +14.389038, -0.961304, -21.408081
1490302196.998392, 1490302197.000806, +0.057495, +0.999939, +0.169922, +14.526367, -0.961304, -21.408081
1490302197.001078, 1490302197.003490, +0.057495, +0.999939, +0.169922, +14.526367, -0.961304, -22.781372
1490302197.003763, 1490302197.006084, +0.057495, +0.999939, +0.169922, +15.960693, -1.907349, -22.781372
1490302197.006349, 1490302197.008635, +0.030396, +1.015320, +0.145935, +15.960693, -1.907349, -22.781372
1490302197.008899, 1490302197.011185, +0.030396, +1.015320, +0.145935, +14.617920, -2.868652, -22.872925
1490302197.011450, 1490302197.013738, +0.030396, +1.015320, +0.145935, +14.617920, -2.868652, -22.872925
1490302197.014003, 1490302197.016445, +0.030396, +1.012573, +0.128540, +13.442993, -4.165649, -24.780273
1490302197.016717, 1490302197.019129, +0.020325, +1.012573, +0.128540, +13.442993, -4.165649, -24.780273
1490302197.019399, 1490302197.021807, +0.020325, +1.012573, +0.128540, +13.977051, -3.890991, -25.665283
1490302197.022077, 1490302197.024500, +0.020325, +1.012573, +0.128540, +13.977051, -3.890991, -25.665283
1490302197.024773, 1490302197.027180, +0.015198, +0.986572, +0.171204, +12.237549, -3.677368, -25.650024
1490302197.027452, 1490302197.029858, +0.015198, +0.986572, +0.171204, +12.237549, -3.677368, -25.650024
1490302197.030129, 1490302197.032539, +0.015198, +0.986572, +0.171204, +12.069702, -4.043579, -27.526855
1490302197.032810, 1490302197.035234, +0.015198, +0.986572, +0.171204, +12.069702, -4.043579, -27.526855
1490302197.035505, 1490302197.037919, +0.018860, +0.996643, +0.169739, +13.046265, -3.311157, -29.159546
1490302197.038191, 1490302197.040602, +0.018860, +0.996643, +0.169739, +13.046265, -3.311157, -29.159546
1490302197.040875, 1490302197.043285, +0.018860, +0.996643, +0.169739, +12.176514, -2.853394, -28.701782
1490302197.043558, 1490302197.045897, +0.018860, +0.976135, +0.165527, +12.176514, -2.853394, -28.701782
1490302197.046162, 1490302197.048447, +0.034241, +0.976135, +0.165527, +8.987427, -3.372192, -29.739380
1490302197.048708, 1490302197.050995, +0.034241, +0.976135, +0.165527, +8.987427, -3.372192, -29.739380
1490302197.051256, 1490302197.053540, +0.034241, +0.976135, +0.165527, +8.987427, -2.838135, -31.829834
1490302197.053800, 1490302197.056180, -0.021973, +0.974121, +0.124695, +7.400513, -2.838135, -31.829834
1490302197.056450, 1490302197.058859, -0.021973, +0.974121, +0.124695, +7.400513, -2.838135, -32.440186
1490302197.059128, 1490302197.061545, -0.021973, +0.974121, +0.124695, +5.569458, -1.541138, -32.440186
1490302197.061813, 1490302197.064223, -0.021973, +0.974121, +0.124695, +5.569458, -1.541138, -34.591675
1490302197.064504, 1490302197.066916, +0.084961, +1.013672, +0.148132, +4.882812, -1.098633, -34.591675
1490302197.067289, 1490302197.069701, +0.084961, +1.013672, +0.148132, +4.882812, -1.098633, -37.109375
1490302197.069969, 1490302197.072381, +0.084961, +1.013672, +0.148132, +5.584717, -0.854492, -37.109375
1490302197.072650, 1490302197.075070, +0.084961, +1.008911, +0.135132, +5.584717, -0.854492, -37.109375
1490302197.075339, 1490302197.077749, +0.053650, +1.008911, +0.135132, +4.486084, -1.419067, -37.734985
1490302197.078018, 1490302197.080426, +0.053650, +1.008911, +0.135132, +4.486084, -1.419067, -37.734985
1490302197.080694, 1490302197.083106, +0.053650, +1.008911, +0.135132, +3.555298, -3.509521, -40.100098
1490302197.083374, 1490302197.085859, +0.032776, +0.994995, +0.125610, +3.555298, -3.509521, -40.100098
1490302197.086127, 1490302197.088545, +0.032776, +0.994995, +0.125610, +3.875732, -3.906250, -43.090820
1490302197.088813, 1490302197.091231, +0.032776, +0.994995, +0.125610, +3.875732, -3.906250, -43.090820
1490302197.091500, 1490302197.093915, +0.032776, +0.994995, +0.149780, +4.730225, -5.081177, -43.945312
1490302197.094186, 1490302197.096546, +0.028564, +1.021179, +0.149780, +4.730225, -5.081177, -43.945312
1490302197.096809, 1490302197.099099, +0.028564, +1.021179, +0.149780, +4.165649, -8.972168, -45.486450
1490302197.099361, 1490302197.101649, +0.028564, +1.021179, +0.149780, +4.165649, -8.972168, -45.486450
1490302197.101910, 1490302197.104199, -0.018311, +0.975403, +0.186768, +4.104614, -10.223389, -45.989990
1490302197.104450, 1490302197.106739, -0.042847, +0.975403, +0.186768, +4.104614, -10.223389, -45.989990
1490302197.107004, 1490302197.109287, -0.042847, +0.975403, +0.186768, +1.968384, -9.307861, -45.837402
1490302197.109548, 1490302197.111834, -0.042847, +0.975403, +0.186768, +1.968384, -9.307861, -45.837402
1490302197.112097, 1490302197.114386, -0.043945, +0.971375, +0.165344, +1.968384, -9.307861, -46.905518
1490302197.114705, 1490302197.117114, -0.043945, +0.971375, +0.165344, +1.831055, -8.178711, -46.905518
1490302197.117384, 1490302197.119797, -0.043945, +0.971375, +0.165344, +1.831055, -8.178711, -47.393799
1490302197.120065, 1490302197.122477, -0.043945, +0.971375, +0.165344, +2.044678, -7.614136, -47.393799
1490302197.122745, 1490302197.125165, +0.048706, +0.993164, +0.158936, +2.044678, -7.614136, -49.072266
1490302197.125433, 1490302197.127841, +0.048706, +0.993164, +0.158936, +2.288818, -8.148193, -49.072266
1490302197.128111, 1490302197.130522, +0.048706, +0.993164, +0.158936, +2.288818, -8.148193, -52.978516
1490302197.130791, 1490302197.133203, +0.048706, +0.998108, +0.160583, +2.944946, -9.490967, -51.574707
1490302197.133472, 1490302197.135894, +0.009521, +0.998108, +0.160583, +2.944946, -9.490967, -51.574707
1490302197.136164, 1490302197.138575, +0.009521, +0.998108, +0.160583, +3.341675, -12.023926, -52.581787
1490302197.138849, 1490302197.141264, +0.009521, +0.998108, +0.160583, +3.341675, -12.023926, -52.581787
1490302197.141536, 1490302197.143953, -0.047791, +1.021179, +0.216431, +3.723145, -15.762329, -53.649902
1490302197.144222, 1490302197.146532, -0.047791, +1.021179, +0.216431, +3.723145, -15.762329, -53.649902
1490302197.146797, 1490302197.149085, -0.047791, +1.021179, +0.216431, +6.332397, -16.586304, -55.953979
1490302197.149349, 1490302197.151637, -0.047791, +1.021179, +0.216431, +6.332397, -16.586304, -55.953979
1490302197.151900, 1490302197.154188, -0.012634, +1.017151, +0.201599, +9.399414, -16.326904, -55.313110
1490302197.154460, 1490302197.156871, -0.012634, +1.017151, +0.201599, +9.399414, -16.326904, -55.313110
1490302197.157143, 1490302197.159559, -0.012634, +1.017151, +0.201599, +9.750366, -17.745972, -54.534912
1490302197.159831, 1490302197.162239, -0.012634, +1.017151, +0.199951, +9.750366, -17.745972, -54.534912
1490302197.162512, 1490302197.164933, -0.028381, +0.996277, +0.199951, +8.773804, -19.226074, -56.167603
1490302197.165204, 1490302197.167620, -0.028381, +0.996277, +0.199951, +8.773804, -19.226074, -56.167603
1490302197.167892, 1490302197.170304, -0.028381, +0.996277, +0.199951, +9.429932, -19.042969, -56.884766
1490302197.170574, 1490302197.172990, -0.050903, +0.996826, +0.225952, +9.429932, -19.042969, -56.884766
1490302197.173367, 1490302197.175783, -0.050903, +0.996826, +0.225952, +9.429932, -17.730713, -54.916382
1490302197.176055, 1490302197.178465, -0.050903, +0.996826, +0.225952, +9.750366, -17.730713, -54.916382
1490302197.178736, 1490302197.181150, -0.050903, +0.996826, +0.225952, +9.750366, -16.616821, -53.558350
1490302197.181421, 1490302197.183829, -0.112610, +0.994812, +0.228882, +10.162354, -16.616821, -53.558350
1490302197.184104, 1490302197.186425, -0.112610, +0.994812, +0.228882, +10.162354, -12.710571, -51.681519
1490302197.186693, 1490302197.188975, -0.112610, +0.994812, +0.228882, +12.222290, -14.389038, -51.681519
1490302197.189241, 1490302197.191529, -0.112610, +0.970825, +0.199036, +12.222290, -14.389038, -47.775269
1490302197.191796, 1490302197.194083, -0.199951, +0.970825, +0.199036, +11.825562, -11.764526, -49.133301
1490302197.194349, 1490302197.196765, -0.199951, +0.970825, +0.199036, +11.825562, -11.764526, -49.133301
1490302197.197039, 1490302197.199452, -0.199951, +0.970825, +0.199036, +10.620117, -7.919312, -48.568726
1490302197.199725, 1490302197.202139, -0.199219, +0.971008, +0.192810, +10.620117, -7.919312, -48.568726
1490302197.202411, 1490302197.204835, -0.199219, +0.971008, +0.192810, +11.611938, -4.211426, -47.210693
1490302197.205106, 1490302197.207517, -0.199219, +0.971008, +0.192810, +11.611938, -4.211426, -47.210693
1490302197.207786, 1490302197.210202, -0.199219, +0.971008, +0.192810, +11.642456, -2.059937, -44.647217
1490302197.210473, 1490302197.212884, -0.197021, +0.971375, +0.194824, +11.642456, -2.059937, -44.647217
1490302197.213155, 1490302197.215566, -0.197021, +0.971375, +0.194824, +12.481689, -0.411987, -44.967651
1490302197.215840, 1490302197.218254, -0.197021, +0.971375, +0.194824, +12.481689, -0.411987, -44.967651
1490302197.218525, 1490302197.220936, -0.197021, +0.947937, +0.207825, +12.405396, +2.716064, -44.509888
1490302197.221206, 1490302197.223625, -0.190796, +0.947937, +0.207825, +12.405396, +2.716064, -44.509888
1490302197.223895, 1490302197.226314, -0.190796, +0.947937, +0.207825, +11.901855, +3.997803, -42.419434
1490302197.226585, 1490302197.229001, -0.190796, +0.947937, +0.207825, +11.901855, +3.997803, -42.419434
1490302197.229274, 1490302197.231687, -0.141174, +0.951416, +0.194458, +10.726929, +4.913330, -40.115356
1490302197.231960, 1490302197.234371, -0.141174, +0.951416, +0.194458, +10.726929, +4.913330, -40.115356
1490302197.234686, 1490302197.236976, -0.141174, +0.951416, +0.194458, +9.368896, +4.272461, -39.352417
1490302197.237237, 1490302197.239522, -0.141174, +0.951416, +0.100708, +9.368896, +4.272461, -39.352417
1490302197.239784, 1490302197.242077, -0.162598, +0.986755, +0.129272, +9.368896, +2.014160, -39.443970
1490302197.242336, 1490302197.244661, -0.162598, +0.986755, +0.129272, +8.728027, +2.014160, -39.443970
1490302197.244921, 1490302197.247207, -0.162598, +0.986755, +0.129272, +8.728027, +2.014160, -37.963867
1490302197.247466, 1490302197.249751, -0.162598, +0.986755, +0.097412, +8.865356, +0.717163, -37.963867
1490302197.250014, 1490302197.252298, -0.217529, +1.009277, +0.097412, +8.865356, +0.717163, -37.963867
1490302197.252559, 1490302197.254883, -0.217529, +1.009277, +0.097412, +7.614136, -0.350952, -34.942627
1490302197.255153, 1490302197.257556, -0.217529, +1.009277, +0.097412, +7.614136, -0.350952, -34.942627
1490302197.257823, 1490302197.260227, -0.281799, +0.999756, +0.094849, +5.935669, -1.525879, -33.645630
1490302197.260496, 1490302197.262893, -0.281799, +0.999756, +0.094849, +5.935669, -1.525879, -33.645630
1490302197.263161, 1490302197.265558, -0.281799, +0.999756, +0.094849, +6.790161, -1.052856, -31.951904
1490302197.265845, 1490302197.270067, -0.234924, +0.974121, +0.169189, +5.935669, +1.174927, -29.327393
1490302197.270342, 1490302197.272630, -0.251038, +0.974121, +0.169189, +5.935669, +1.174927, -29.327393
1490302197.272892, 1490302197.275264, -0.251038, +0.974121, +0.169189, +5.935669, +2.716064, -27.572632
1490302197.275525, 1490302197.277810, -0.251038, +0.974121, +0.169189, +4.089355, +2.716064, -27.572632
1490302197.278200, 1490302197.280482, -0.280518, +0.945923, +0.184753, +4.089355, +2.716064, -26.092529
1490302197.280743, 1490302197.283026, -0.280518, +0.945923, +0.184753, +4.699707, +3.982544, -26.092529
1490302197.283288, 1490302197.285616, -0.280518, +0.945923, +0.184753, +4.699707, +3.982544, -26.092529
1490302197.285878, 1490302197.288166, -0.280518, +0.945923, +0.231628, +3.845215, +5.493164, -23.574829
1490302197.288427, 1490302197.290713, -0.189880, +0.928711, +0.207642, +3.845215, +5.493164, -23.574829
1490302197.290972, 1490302197.293264, -0.189880, +0.928711, +0.207642, +3.814697, +5.203247, -23.406982
1490302197.293523, 1490302197.295830, -0.189880, +0.928711, +0.207642, +3.814697, +5.203247, -23.406982
1490302197.296091, 1490302197.298377, -0.189880, +0.975586, +0.143555, +3.204346, +2.517700, -22.079468
1490302197.298637, 1490302197.300932, -0.067017, +0.964417, +0.143555, +3.204346, +2.517700, -22.079468
1490302197.301194, 1490302197.303480, -0.067017, +0.964417, +0.143555, +1.831055, -3.494263, -21.850586
