timestamp_before, timestamp_after, accel_x, accel_y, accel_z, gyro_x, gyro_y, gyro_z
1490335944.909045, 1490335944.913026, -0.142090, +1.004883, +0.152893, -0.793457, +11.138916, -80.139160
1490335944.913384, 1490335944.915960, -0.163696, +1.004883, +0.152893, -0.793457, -3.524780, -146.713257
1490335944.916231, 1490335944.918658, -0.163696, +1.004883, +0.152893, +18.737793, -3.524780, -146.713257
1490335944.918924, 1490335944.921213, -0.163696, +1.004883, +0.148315, +18.737793, -1.663208, -109.909058
1490335944.921478, 1490335944.923765, -0.170471, +0.965149, +0.148315, +12.832642, -1.663208, -109.909058
1490335944.924029, 1490335944.926317, -0.170471, +0.965149, +0.148315, +12.832642, -1.663208, -106.201172
1490335944.926582, 1490335944.928985, -0.170471, +0.965149, +0.148315, +14.068604, -1.693726, -106.201172
1490335944.929250, 1490335944.931532, -0.170471, +1.003418, +0.144104, +14.068604, -1.693726, -106.262207
1490335944.931796, 1490335944.934081, -0.169006, +1.003418, +0.144104, +14.083862, -1.815796, -106.262207
1490335944.934346, 1490335944.936623, -0.169006, +1.003418, +0.144104, +14.083862, -1.815796, -106.262207
1490335944.936888, 1490335944.939321, -0.169006, +1.003418, +0.144104, +13.244629, -1.449585, -106.307983
1490335944.939585, 1490335944.941865, -0.178345, +1.003601, +0.148682, +13.244629, -1.449585, -106.307983
1490335944.942129, 1490335944.944412, -0.178345, +1.003601, +0.148682, +13.183594, -1.663208, -106.048584
1490335944.944675, 1490335944.946959, -0.178345, +1.003601, +0.148682, +13.183594, -1.663208, -106.048584
1490335944.947340, 1490335944.949742, -0.178345, +1.003601, +0.148682, +13.351440, -1.419067, -106.140137
1490335944.950014, 1490335944.952412, -0.170837, +1.005432, +0.147034, +13.351440, -1.419067, -106.140137
1490335944.952682, 1490335944.955082, -0.170837, +1.005432, +0.147034, +14.419556, -1.235962, -106.460571
1490335944.955351, 1490335944.957753, -0.170837, +1.005432, +0.147034, +14.419556, -1.235962, -106.460571
1490335944.958024, 1490335944.960423, -0.170837, +1.005432, +0.149780, +13.961792, -1.266479, -106.430054
1490335944.960693, 1490335944.963092, -0.169189, +0.996094, +0.149780, +13.961792, -1.266479, -106.430054
1490335944.963362, 1490335944.965760, -0.169189, +0.996094, +0.149780, +13.626099, -1.754761, -106.185913
1490335944.966032, 1490335944.968441, -0.169189, +0.996094, +0.149780, +13.626099, -1.754761, -106.185913
1490335944.968711, 1490335944.971109, -0.165161, +0.994080, +0.141907, +13.610840, -1.724243, -106.323242
1490335944.971378, 1490335944.973777, -0.165161, +0.994080, +0.141907, +13.610840, -1.724243, -106.323242
1490335944.974048, 1490335944.976447, -0.165161, +0.994080, +0.141907, +12.954712, -1.632690, -106.155396
1490335944.976718, 1490335944.979107, -0.165161, +0.994080, +0.141907, +12.954712, -1.632690, -106.155396
1490335944.979377, 1490335944.981753, -0.164429, +0.991699, +0.140991, +13.397217, -1.510620, -105.957031
1490335944.982021, 1490335944.984546, -0.164429, +0.991699, +0.140991, +13.397217, -1.510620, -105.987549
1490335944.984816, 1490335944.987296, -0.164429, +0.991699, +0.140991, +13.458252, -1.556396, -105.987549
1490335944.987569, 1490335944.989983, -0.164429, +0.993347, +0.137878, +13.458252, -1.556396, -106.353760
1490335944.990255, 1490335944.992665, -0.171570, +0.993347, +0.137878, +13.351440, -1.724243, -106.353760
1490335944.992936, 1490335944.995351, -0.171570, +0.993347, +0.137878, +13.351440, -1.724243, -109.527588
1490335944.995622, 1490335944.998042, -0.171570, +0.993347, +0.137878, +13.427734, -1.953125, -109.527588
1490335944.998313, 1490335945.000727, -0.166077, +0.999207, +0.131836, +13.427734, -1.953125, -102.066040
1490335945.000998, 1490335945.003412, -0.166077, +0.999207, +0.131836, +15.548706, -2.197266, -102.066040
1490335945.003685, 1490335945.006094, -0.166077, +0.999207, +0.131836, +15.548706, -2.197266, -90.347290
1490335945.006365, 1490335945.008824, -0.166077, +0.999207, +0.132385, +15.960693, -2.395630, -91.888428
1490335945.009096, 1490335945.011509, -0.162964, +1.002869, +0.132385, +15.960693, -2.395630, -91.888428
1490335945.011936, 1490335945.014345, -0.162964, +1.002869, +0.132385, +15.762329, -2.288818, -91.476440
1490335945.014616, 1490335945.017033, -0.162964, +1.002869, +0.132385, +15.762329, -2.288818, -91.476440
1490335945.017297, 1490335945.019583, -0.160400, +1.006531, +0.133484, +15.686035, -2.517700, -91.644287
1490335945.019847, 1490335945.022143, -0.160400, +1.006531, +0.133484, +15.686035, -2.517700, -91.644287
1490335945.022406, 1490335945.024691, -0.160400, +1.006531, +0.133484, +16.235352, -2.426147, -91.629028
1490335945.024955, 1490335945.027488, -0.160400, +1.006531, +0.133484, +16.235352, -2.426147, -91.629028
1490335945.027773, 1490335945.030079, -0.154541, +1.005798, +0.134216, +16.006470, -1.708984, -90.881348
1490335945.030347, 1490335945.032632, -0.154541, +1.005798, +0.134216, +16.006470, -1.708984, -90.881348
1490335945.032895, 1490335945.035186, -0.154541, +1.005798, +0.134216, +15.823364, -1.296997, -89.218140
1490335945.035448, 1490335945.038086, -0.154541, +1.005798, +0.134216, +15.823364, -1.296997, -89.218140
1490335945.038350, 1490335945.041315, -0.155457, +1.013489, +0.136047, +15.090942, -1.342773, -87.448120
1490335945.041582, 1490335945.043873, -0.155457, +1.013489, +0.136047, +15.090942, -1.342773, -87.448120
1490335945.044138, 1490335945.046422, -0.155457, +1.013489, +0.136047, +14.266968, -1.785278, -86.105347
1490335945.046688, 1490335945.049106, -0.162781, +1.006714, +0.140259, +14.266968, -1.785278, -86.105347
1490335945.049372, 1490335945.051659, -0.162781, +1.006714, +0.140259, +13.778687, -2.288818, -86.059570
1490335945.051923, 1490335945.054205, -0.162781, +1.006714, +0.140259, +13.778687, -2.288818, -86.059570
1490335945.054469, 1490335945.056751, -0.162781, +1.006714, +0.140259, +13.778687, -2.120972, -85.189819
1490335945.057085, 1490335945.059371, -0.165527, +0.999756, +0.138245, +14.114380, -2.120972, -85.189819
1490335945.059636, 1490335945.061917, -0.165527, +0.999756, +0.138245, +14.114380, -2.120972, -83.831787
1490335945.062182, 1490335945.064470, -0.165527, +0.999756, +0.138245, +14.846802, -1.663208, -83.831787
1490335945.064733, 1490335945.067065, -0.165527, +0.999756, +0.135498, +14.846802, -1.663208, -83.831787
1490335945.067329, 1490335945.069612, -0.169189, +0.987122, +0.135498, +14.099121, -0.854492, -80.810547
1490335945.069877, 1490335945.072162, -0.169189, +0.987122, +0.135498, +14.099121, -0.854492, -80.810547
1490335945.072427, 1490335945.074715, -0.169189, +0.987122, +0.135498, +12.451172, -0.976562, -77.545166
1490335945.074980, 1490335945.077420, -0.169189, +0.984741, +0.127258, +12.451172, -0.976562, -77.545166
1490335945.077687, 1490335945.079964, -0.177429, +0.984741, +0.127258, +12.207031, -1.556396, -76.187134
1490335945.080228, 1490335945.082593, -0.177429, +0.984741, +0.127258, +12.207031, -1.556396, -76.187134
1490335945.082858, 1490335945.085148, -0.177429, +0.984741, +0.127258, +12.786865, -0.991821, -73.593140
1490335945.085413, 1490335945.087828, -0.162964, +0.988037, +0.119385, +12.786865, -0.991821, -73.593140
1490335945.088098, 1490335945.090475, -0.162964, +0.988037, +0.119385, +12.557983, -0.045776, -70.266724
1490335945.090744, 1490335945.093225, -0.162964, +0.988037, +0.119385, +12.557983, -0.045776, -70.266724
1490335945.093496, 1490335945.095871, -0.162964, +0.988037, +0.119385, +11.657715, +0.732422, -65.643311
1490335945.096901, 1490335945.099333, -0.167725, +0.991333, +0.122681, +11.657715, +0.732422, -65.643311
1490335945.099607, 1490335945.102021, -0.167725, +0.991333, +0.122681, +9.475708, +1.464844, -59.402466
1490335945.102291, 1490335945.104704, -0.167725, +0.991333, +0.122681, +9.475708, +1.464844, -59.402466
1490335945.104974, 1490335945.107440, -0.158203, +0.996826, +0.123047, +8.361816, +1.113892, -54.092407
1490335945.107712, 1490335945.110122, -0.158203, +0.996826, +0.123047, +8.361816, +1.113892, -54.092407
1490335945.110392, 1490335945.112809, -0.158203, +0.996826, +0.123047, +9.277344, +0.885010, -48.095703
1490335945.113079, 1490335945.115487, -0.158203, +0.996826, +0.123047, +9.277344, +0.885010, -48.095703
1490335945.115886, 1490335945.118310, -0.162415, +1.007446, +0.129089, +8.819580, +1.464844, -41.198730
1490335945.118580, 1490335945.121001, -0.162415, +1.007446, +0.129089, +8.819580, +1.464844, -41.198730
1490335945.121269, 1490335945.123678, -0.162415, +1.007446, +0.129089, +7.904053, +1.052856, -34.957886
1490335945.123944, 1490335945.126359, -0.162415, +1.009094, +0.129639, +7.904053, +1.052856, -34.957886
1490335945.126627, 1490335945.128949, -0.161499, +1.009094, +0.129639, +7.904053, +0.686646, -29.129028
1490335945.129209, 1490335945.131491, -0.161499, +1.009094, +0.129639, +8.453369, +0.686646, -29.129028
1490335945.131753, 1490335945.134041, -0.161499, +1.009094, +0.129639, +8.453369, +0.686646, -21.194458
1490335945.134302, 1490335945.136588, -0.173035, +1.007629, +0.126892, +7.553101, +0.625610, -21.194458
1490335945.136849, 1490335945.139279, -0.173035, +1.007629, +0.126892, +7.553101, +0.625610, -13.381958
1490335945.139541, 1490335945.141835, -0.173035, +1.007629, +0.126892, +8.728027, -0.915527, -13.092041
1490335945.142096, 1490335945.144386, -0.173035, +1.007629, +0.126892, +8.728027, -0.915527, -13.092041
1490335945.144647, 1490335945.146934, -0.185486, +0.996460, +0.113342, +10.696411, -1.464844, -7.324219
1490335945.147371, 1490335945.149750, -0.185486, +0.996460, +0.113342, +10.696411, -1.464844, -7.324219
1490335945.150018, 1490335945.152394, -0.185486, +0.996460, +0.113342, +9.613037, -1.586914, -5.081177
1490335945.152659, 1490335945.155211, -0.185486, +0.996460, +0.110046, +9.613037, -1.586914, -5.081177
1490335945.155473, 1490335945.158005, -0.191162, +0.992798, +0.110046, +10.284424, -1.159668, -5.432129
1490335945.158268, 1490335945.160553, -0.191162, +0.992798, +0.110046, +10.284424, -1.159668, -5.432129
1490335945.160813, 1490335945.163100, -0.191162, +0.992798, +0.110046, +9.216309, -0.564575, -4.730225
1490335945.163359, 1490335945.165640, -0.208740, +0.998108, +0.111145, +9.216309, -0.564575, -4.730225
1490335945.165900, 1490335945.168269, -0.208740, +0.998108, +0.111145, +9.490967, +0.366211, -5.203247
1490335945.168527, 1490335945.170815, -0.208740, +0.998108, +0.111145, +9.490967, +0.366211, -5.203247
1490335945.171074, 1490335945.173361, -0.208740, +0.998108, +0.111145, +9.490967, +1.403809, -3.692627
1490335945.173619, 1490335945.175906, -0.197754, +1.006348, +0.124329, +9.017944, +1.403809, -3.692627
1490335945.176162, 1490335945.178453, -0.197754, +1.006348, +0.124329, +9.017944, +1.403809, -3.250122
1490335945.178711, 1490335945.180992, -0.197754, +1.006348, +0.124329, +8.728027, +1.647949, -3.250122
1490335945.181251, 1490335945.183537, -0.197754, +1.006348, +0.124329, +8.728027, +1.647949, -3.250122
1490335945.183795, 1490335945.186069, -0.189697, +1.012573, +0.124512, +8.850098, +2.655029, -2.136230
1490335945.186328, 1490335945.188626, -0.189697, +1.012573, +0.124512, +8.850098, +2.655029, -2.136230
1490335945.188887, 1490335945.191176, -0.189697, +1.012573, +0.124512, +7.980347, +2.578735, -2.014160
1490335945.191433, 1490335945.193712, -0.189697, +1.012573, +0.130005, +7.980347, +2.578735, -2.014160
1490335945.193969, 1490335945.196250, -0.184937, +1.013489, +0.130005, +8.697510, +2.761841, -1.907349
1490335945.196507, 1490335945.198911, -0.184937, +1.013489, +0.130005, +8.697510, +2.761841, -1.907349
1490335945.199175, 1490335945.201593, -0.184937, +1.013489, +0.130005, +8.255005, +2.517700, -1.296997
1490335945.201858, 1490335945.204347, -0.184937, +1.012939, +0.127808, +8.255005, +2.517700, -1.296997
1490335945.204612, 1490335945.207035, -0.186584, +1.012939, +0.127808, +8.605957, +2.426147, -1.663208
1490335945.207300, 1490335945.209714, -0.186584, +1.012939, +0.127808, +8.605957, +2.426147, -1.663208
1490335945.209981, 1490335945.212394, -0.186584, +1.012939, +0.127808, +8.621216, +2.365112, -0.686646
1490335945.212658, 1490335945.215070, -0.180908, +1.011475, +0.148315, +8.621216, +2.365112, -0.686646
1490335945.215335, 1490335945.217756, -0.180908, +1.011475, +0.148315, +8.621216, +1.785278, -1.205444
1490335945.218021, 1490335945.220433, -0.180908, +1.011475, +0.148315, +8.895874, +1.785278, -1.205444
1490335945.220816, 1490335945.223227, -0.180908, +1.011475, +0.133850, +8.895874, +1.693726, -0.503540
1490335945.223493, 1490335945.225905, -0.178162, +1.012939, +0.133850, +8.636475, +1.693726, -0.503540
1490335945.226172, 1490335945.228548, -0.178162, +1.012939, +0.133850, +8.636475, +0.976562, -1.144409
1490335945.228807, 1490335945.231093, -0.178162, +1.012939, +0.133850, +9.277344, +0.976562, -1.144409
1490335945.231351, 1490335945.233639, -0.171753, +1.013672, +0.135864, +9.277344, +0.976562, -0.991821
1490335945.233896, 1490335945.236181, -0.171753, +1.013672, +0.135864, +8.178711, +0.503540, -0.991821
1490335945.236440, 1490335945.238775, -0.171753, +1.013672, +0.135864, +8.178711, +0.503540, -0.991821
1490335945.239032, 1490335945.241321, -0.171753, +1.013672, +0.135864, +8.804321, +0.152588, -1.937866
1490335945.241576, 1490335945.243864, -0.140625, +1.017151, +0.118103, +8.804321, +0.152588, -1.937866
1490335945.244122, 1490335945.246405, -0.140625, +1.017151, +0.118103, +8.605957, -0.396729, -1.892090
1490335945.246663, 1490335945.249076, -0.140625, +1.017151, +0.118103, +8.605957, -0.396729, -1.892090
1490335945.249337, 1490335945.251625, -0.140625, +1.017151, +0.118103, +8.361816, -1.480103, -3.128052
1490335945.251883, 1490335945.254171, -0.130737, +0.999390, +0.121399, +8.361816, -1.480103, -3.128052
1490335945.254429, 1490335945.256716, -0.130737, +0.999390, +0.121399, +8.087158, -1.739502, -2.746582
1490335945.256974, 1490335945.259549, -0.130737, +0.999390, +0.121399, +8.087158, -1.739502, -2.746582
1490335945.259815, 1490335945.262211, -0.130737, +0.999390, +0.126709, +8.178711, -2.670288, -4.440308
1490335945.262475, 1490335945.264868, -0.140808, +0.990051, +0.126709, +8.178711, -2.670288, -4.440308
1490335945.265132, 1490335945.267539, -0.140808, +0.990051, +0.126709, +8.178711, -2.456665, -4.241943
1490335945.267803, 1490335945.270198, -0.140808, +0.990051, +0.126709, +8.407593, -2.456665, -4.241943
1490335945.270464, 1490335945.272863, -0.140442, +0.978333, +0.134399, +8.407593, -2.456665, -4.898071
1490335945.273127, 1490335945.275527, -0.140442, +0.978333, +0.134399, +8.239746, -3.509521, -4.898071
1490335945.275791, 1490335945.278182, -0.140442, +0.978333, +0.134399, +8.239746, -3.509521, -4.882812
1490335945.278440, 1490335945.280758, -0.140442, +0.978333, +0.134399, +8.941650, -3.112793, -4.882812
1490335945.281016, 1490335945.283304, -0.149597, +0.972473, +0.126526, +8.941650, -3.112793, -4.882812
1490335945.283562, 1490335945.285848, -0.149597, +0.972473, +0.126526, +8.163452, -3.097534, -5.050659
1490335945.286105, 1490335945.288511, -0.149597, +0.972473, +0.126526, +8.163452, -3.097534, -5.050659
1490335945.288777, 1490335945.291187, -0.149597, +0.972473, +0.125427, +8.529663, -2.593994, -5.371094
1490335945.291452, 1490335945.293863, -0.153992, +0.971558, +0.125427, +8.529663, -2.593994, -5.371094
1490335945.294127, 1490335945.296535, -0.153992, +0.971558, +0.125427, +7.873535, -2.182007, -4.638672
1490335945.296799, 1490335945.299252, -0.153992, +0.971558, +0.125427, +7.873535, -2.182007, -4.638672
1490335945.299517, 1490335945.301928, -0.163147, +0.971741, +0.111877, +8.544922, -1.998901, -5.706787
1490335945.302193, 1490335945.304603, -0.163147, +0.971741, +0.111877, +8.544922, -1.998901, -5.706787
1490335945.304868, 1490335945.307282, -0.163147, +0.971741, +0.111877, +7.980347, -1.510620, -4.928589
1490335945.307540, 1490335945.309827, -0.163147, +0.971741, +0.111877, +7.980347, -1.510620, -4.928589
1490335945.310085, 1490335945.312373, -0.157288, +0.976318, +0.117554, +7.125854, -1.495361, -5.157471
1490335945.312630, 1490335945.314920, -0.157288, +0.976318, +0.117554, +7.125854, -1.495361, -5.157471
1490335945.315176, 1490335945.317621, -0.157288, +0.976318, +0.117554, +7.125854, -1.022339, -5.477905
1490335945.317887, 1490335945.320297, -0.157288, +0.976318, +0.124695, +7.797241, -1.022339, -5.477905
1490335945.320562, 1490335945.322975, -0.153259, +0.990234, +0.124695, +7.797241, -1.419067, -5.081177
1490335945.323238, 1490335945.325647, -0.153259, +0.990234, +0.124695, +6.774902, -1.419067, -5.081177
1490335945.326024, 1490335945.328378, -0.153259, +0.990234, +0.124695, +6.774902, -1.342773, -5.599976
1490335945.328635, 1490335945.330922, -0.174500, +1.000305, +0.123779, +7.446289, -1.342773, -5.599976
1490335945.331180, 1490335945.333464, -0.174500, +1.000305, +0.123779, +7.446289, -1.342773, -5.081177
1490335945.333720, 1490335945.336013, -0.174500, +1.000305, +0.123779, +7.308960, -0.122070, -5.081177
1490335945.336271, 1490335945.338679, -0.174500, +1.000305, +0.123779, +7.308960, -0.122070, -5.081177
1490335945.338944, 1490335945.341350, -0.176514, +1.014954, +0.128357, +6.881714, +0.274658, -5.783081
1490335945.341613, 1490335945.344028, -0.176514, +1.014954, +0.128357, +6.881714, +0.274658, -5.783081
1490335945.344294, 1490335945.346704, -0.176514, +1.014954, +0.128357, +7.888794, +0.930786, -5.477905
1490335945.346968, 1490335945.349426, -0.176514, +1.014954, +0.132385, +7.888794, +0.930786, -5.477905
1490335945.349690, 1490335945.352100, -0.174316, +1.009644, +0.132385, +7.125854, +1.251221, -4.714966
1490335945.352363, 1490335945.354776, -0.174316, +1.009644, +0.132385, +7.125854, +1.251221, -4.714966
1490335945.355039, 1490335945.357458, -0.174316, +1.009644, +0.132385, +7.369995, +1.083374, -5.752563
1490335945.357720, 1490335945.360129, -0.175049, +1.004150, +0.142090, +7.369995, +1.083374, -5.752563
1490335945.360392, 1490335945.362798, -0.175049, +1.004150, +0.142090, +8.010864, +1.510620, -4.577637
1490335945.363061, 1490335945.365471, -0.175049, +1.004150, +0.142090, +8.010864, +1.510620, -4.577637
1490335945.365734, 1490335945.368150, -0.175049, +1.004150, +0.142090, +7.705688, +1.022339, -4.425049
1490335945.368413, 1490335945.370821, -0.170471, +0.994812, +0.144287, +7.705688, +1.022339, -4.425049
1490335945.371086, 1490335945.373496, -0.170471, +0.994812, +0.144287, +8.422852, +1.220703, -3.845215
1490335945.373762, 1490335945.376170, -0.170471, +0.994812, +0.144287, +8.422852, +1.220703, -3.845215
1490335945.376436, 1490335945.378769, -0.170471, +0.994812, +0.143188, +7.781982, +1.190186, -3.173828
1490335945.379026, 1490335945.381313, -0.179443, +0.988953, +0.143188, +7.781982, +1.190186, -3.173828
1490335945.381569, 1490335945.383859, -0.179443, +0.988953, +0.143188, +7.781982, +1.281738, -3.463745
1490335945.384114, 1490335945.386403, -0.179443, +0.988953, +0.143188, +8.911133, +1.281738, -3.463745
1490335945.386659, 1490335945.389080, -0.179443, +0.989319, +0.151428, +8.911133, +1.281738, -2.487183
1490335945.389345, 1490335945.391748, -0.187134, +0.989319, +0.151428, +8.026123, +1.266479, -2.487183
1490335945.392013, 1490335945.394427, -0.187134, +0.989319, +0.151428, +8.026123, +1.266479, -2.655029
1490335945.394691, 1490335945.397103, -0.187134, +0.989319, +0.151428, +9.002686, +1.327515, -2.655029
1490335945.397368, 1490335945.399774, -0.179077, +0.990967, +0.156189, +9.002686, +1.327515, -2.655029
1490335945.400039, 1490335945.402449, -0.179077, +0.990967, +0.156189, +9.185791, +2.059937, -1.327515
1490335945.402713, 1490335945.405128, -0.179077, +0.990967, +0.156189, +9.185791, +2.059937, -1.327515
1490335945.405395, 1490335945.407858, -0.179077, +0.990967, +0.156189, +8.697510, +1.739502, -1.358032
1490335945.408123, 1490335945.410529, -0.169922, +0.999756, +0.153076, +8.697510, +1.739502, -1.358032
1490335945.410795, 1490335945.413200, -0.169922, +0.999756, +0.153076, +9.414673, +2.349854, -1.663208
1490335945.413466, 1490335945.415874, -0.169922, +0.999756, +0.153076, +9.414673, +2.349854, -1.663208
1490335945.416138, 1490335945.418559, -0.157104, +1.003235, +0.142822, +8.560181, +1.571655, -1.602173
1490335945.418823, 1490335945.421234, -0.157104, +1.003235, +0.142822, +8.560181, +1.571655, -1.602173
1490335945.421498, 1490335945.423914, -0.157104, +1.003235, +0.142822, +9.719849, +1.495361, -2.029419
1490335945.424178, 1490335945.426589, -0.157104, +1.003235, +0.142822, +9.719849, +1.495361, -2.029419
1490335945.426854, 1490335945.429167, -0.164429, +1.002869, +0.144653, +8.544922, +1.556396, -1.541138
1490335945.429424, 1490335945.431713, -0.164429, +1.002869, +0.144653, +8.544922, +1.556396, -1.541138
1490335945.432080, 1490335945.434368, -0.164429, +1.002869, +0.144653, +9.277344, +1.037598, -2.273560
1490335945.434626, 1490335945.436915, -0.164429, +1.002869, +0.097778, +9.277344, +1.037598, -2.273560
1490335945.437175, 1490335945.439457, -0.147217, +1.008911, +0.122314, +9.277344, +1.174927, -2.075195
1490335945.439715, 1490335945.441996, -0.147217, +1.008911, +0.122314, +9.429932, +1.174927, -2.075195
1490335945.442253, 1490335945.444539, -0.147217, +1.008911, +0.122314, +9.429932, +1.174927, -3.051758
1490335945.444795, 1490335945.447103, -0.147217, +1.008911, +0.130920, +8.972168, +0.671387, -3.051758
1490335945.447369, 1490335945.449782, -0.151245, +1.007812, +0.130920, +8.972168, +0.671387, -3.051758
1490335945.450047, 1490335945.452461, -0.151245, +1.007812, +0.130920, +8.926392, +0.518799, -2.441406
1490335945.452727, 1490335945.455136, -0.151245, +1.007812, +0.130920, +8.926392, +0.518799, -2.441406
1490335945.455400, 1490335945.457822, -0.151245, +0.988770, +0.130920, +8.850098, +0.167847, -3.051758
1490335945.458087, 1490335945.460497, -0.151245, +0.988770, +0.130920, +8.850098, +0.167847, -3.051758
1490335945.460764, 1490335945.463176, -0.151245, +0.988770, +0.130920, +9.719849, +0.427246, -2.899170
1490335945.463440, 1490335945.465853, -0.151245, +0.988770, +0.130920, +9.719849, +0.427246, -2.899170
1490335945.466119, 1490335945.468545, -0.159302, +0.990051, +0.144653, +9.002686, +0.015259, -2.838135
1490335945.468811, 1490335945.471224, -0.159302, +0.990051, +0.144653, +9.002686, +0.015259, -2.838135
1490335945.471489, 1490335945.473904, -0.159302, +0.990051, +0.144653, +8.819580, +0.122070, -3.723145
1490335945.474168, 1490335945.476585, -0.159302, +0.993896, +0.131470, +8.819580, +0.122070, -3.723145
1490335945.476852, 1490335945.479271, -0.159485, +0.993896, +0.131470, +9.353638, +0.488281, -3.250122
1490335945.479537, 1490335945.481948, -0.159485, +0.993896, +0.131470, +9.353638, +0.488281, -3.250122
1490335945.482212, 1490335945.484618, -0.159485, +0.993896, +0.131470, +8.804321, +0.350952, -3.341675
1490335945.484883, 1490335945.487296, -0.153259, +1.001587, +0.142090, +8.804321, +0.350952, -3.341675
1490335945.487554, 1490335945.489838, -0.153259, +1.001587, +0.142090, +9.307861, +0.381470, -4.547119
1490335945.490095, 1490335945.492383, -0.153259, +1.001587, +0.142090, +9.307861, +0.381470, -4.547119
1490335945.492641, 1490335945.494928, -0.153259, +1.001587, +0.142090, +9.307861, +0.610352, -3.875732
1490335945.495186, 1490335945.497525, -0.155273, +1.005432, +0.135864, +9.216309, +0.610352, -3.875732
1490335945.497791, 1490335945.500202, -0.155273, +1.005432, +0.135864, +9.216309, +0.610352, -3.616333
1490335945.500470, 1490335945.502881, -0.155273, +1.005432, +0.135864, +8.682251, +0.152588, -3.616333
1490335945.503148, 1490335945.505556, -0.155273, +1.005432, +0.141174, +8.682251, +0.152588, -5.096436
1490335945.505821, 1490335945.508241, -0.160400, +1.010925, +0.141174, +9.246826, -0.381470, -5.096436
1490335945.508506, 1490335945.510915, -0.160400, +1.010925, +0.141174, +9.246826, -0.381470, -4.669189
1490335945.511179, 1490335945.513590, -0.160400, +1.010925, +0.141174, +9.857178, -0.213623, -4.669189
1490335945.513855, 1490335945.516266, -0.151245, +1.010193, +0.152344, +9.857178, -0.213623, -4.669189
1490335945.516533, 1490335945.518949, -0.151245, +1.010193, +0.152344, +9.094238, -0.137329, -4.348755
1490335945.519215, 1490335945.521625, -0.151245, +1.010193, +0.152344, +9.094238, -0.137329, -4.348755
1490335945.521891, 1490335945.524303, -0.151245, +1.010193, +0.152344, +9.124756, -1.235962, -5.630493
1490335945.524567, 1490335945.526979, -0.155640, +1.007812, +0.140076, +9.124756, -1.235962, -5.630493
1490335945.527290, 1490335945.529700, -0.155640, +1.007812, +0.140076, +10.147095, -1.235962, -6.240845
1490335945.529970, 1490335945.532381, -0.155640, +1.007812, +0.140076, +10.147095, -1.235962, -6.240845
1490335945.532651, 1490335945.535064, -0.155640, +0.997192, +0.154541, +10.482788, -0.823975, -5.477905
1490335945.535440, 1490335945.537828, -0.164978, +0.997192, +0.154541, +10.482788, -0.823975, -5.477905
1490335945.538089, 1490335945.540373, -0.164978, +0.997192, +0.154541, +9.140015, -1.342773, -4.623413
1490335945.540629, 1490335945.542922, -0.164978, +0.997192, +0.154541, +9.140015, -1.342773, -4.623413
1490335945.543179, 1490335945.545470, -0.165710, +0.997009, +0.147217, +9.429932, -1.892090, -5.477905
1490335945.545728, 1490335945.548085, -0.165710, +0.997009, +0.147217, +9.429932, -1.892090, -5.477905
1490335945.548350, 1490335945.550763, -0.165710, +0.997009, +0.147217, +10.314941, -1.159668, -5.264282
1490335945.551032, 1490335945.553442, -0.165710, +0.997009, +0.147217, +10.314941, -1.159668, -5.264282
1490335945.553712, 1490335945.556122, -0.167908, +1.002502, +0.153809, +9.735107, -1.312256, -4.837036
1490335945.556386, 1490335945.558865, -0.167908, +1.002502, +0.153809, +9.735107, -1.312256, -4.837036
1490335945.559128, 1490335945.561534, -0.167908, +1.002502, +0.153809, +9.735107, -1.327515, -5.950928
1490335945.561797, 1490335945.564215, -0.167908, +1.005249, +0.140991, +10.269165, -1.327515, -5.950928
1490335945.564483, 1490335945.566895, -0.153809, +1.005249, +0.140991, +10.269165, -1.022339, -5.096436
1490335945.567165, 1490335945.569577, -0.153809, +1.005249, +0.140991, +10.482788, -1.022339, -5.096436
1490335945.569844, 1490335945.572258, -0.153809, +1.005249, +0.140991, +10.482788, -1.022339, -5.004883
1490335945.572524, 1490335945.574939, -0.158020, +1.006897, +0.129456, +9.521484, -1.190186, -5.004883
1490335945.575203, 1490335945.577634, -0.158020, +1.006897, +0.129456, +9.521484, -1.190186, -5.645752
1490335945.577897, 1490335945.580310, -0.158020, +1.006897, +0.129456, +10.147095, -1.205444, -5.645752
1490335945.580578, 1490335945.582988, -0.158020, +1.006897, +0.129456, +10.147095, -1.205444, -4.562378
1490335945.583255, 1490335945.585667, -0.159851, +1.000305, +0.134399, +10.025024, -0.625610, -4.562378
1490335945.585937, 1490335945.588282, -0.159851, +1.000305, +0.134399, +10.025024, -0.625610, -4.562378
1490335945.588543, 1490335945.590832, -0.159851, +1.000305, +0.134399, +9.277344, -1.205444, -4.348755
1490335945.591088, 1490335945.593373, -0.159851, +1.011841, +0.142456, +9.277344, -1.205444, -4.348755
1490335945.593629, 1490335945.595914, -0.162048, +1.011841, +0.142456, +10.299683, -1.007080, -4.928589
1490335945.596174, 1490335945.598551, -0.162048, +1.011841, +0.142456, +10.299683, -1.007080, -4.928589
1490335945.598819, 1490335945.601232, -0.162048, +1.011841, +0.142456, +9.841919, -0.503540, -4.135132
1490335945.601498, 1490335945.603908, -0.174866, +1.020813, +0.153259, +9.841919, -0.503540, -4.135132
1490335945.604173, 1490335945.606587, -0.174866, +1.020813, +0.153259, +10.421753, +0.946045, -5.538940
1490335945.606855, 1490335945.609281, -0.174866, +1.020813, +0.153259, +10.421753, +0.946045, -5.538940
1490335945.609549, 1490335945.611957, -0.174866, +1.020813, +0.153259, +11.108398, +4.806519, -5.447388
1490335945.612224, 1490335945.614640, -0.186584, +1.014771, +0.157654, +11.108398, +4.806519, -5.447388
1490335945.614910, 1490335945.617334, -0.186584, +1.014771, +0.157654, +10.101318, +7.659912, -4.501343
1490335945.617602, 1490335945.620011, -0.186584, +1.014771, +0.157654, +10.101318, +7.659912, -4.501343
1490335945.620279, 1490335945.622689, -0.186584, +0.960205, +0.123596, +10.131836, +7.934570, -4.791260
1490335945.622957, 1490335945.625368, -0.159119, +0.960205, +0.123596, +10.131836, +7.934570, -4.791260
1490335945.625638, 1490335945.628061, -0.159119, +0.960205, +0.123596, +10.131836, +7.156372, -3.982544
1490335945.628331, 1490335945.630742, -0.159119, +0.960205, +0.123596, +10.208130, +7.156372, -3.982544
1490335945.631011, 1490335945.633420, -0.143555, +0.940979, +0.110046, +10.208130, +5.874634, -2.471924
1490335945.633689, 1490335945.636100, -0.143555, +0.940979, +0.110046, +8.850098, +5.874634, -2.471924
1490335945.636366, 1490335945.638729, -0.143555, +0.940979, +0.110046, +8.850098, +5.874634, -2.624512
1490335945.638987, 1490335945.641272, -0.143555, +0.940979, +0.110046, +8.468628, +4.974365, -2.624512
1490335945.641638, 1490335945.643923, -0.147400, +0.955994, +0.107117, +8.468628, +4.974365, -2.990723
1490335945.644183, 1490335945.646467, -0.147400, +0.955994, +0.107117, +9.384155, +4.974365, -2.990723
1490335945.646725, 1490335945.649136, -0.147400, +0.955994, +0.107117, +9.384155, +4.974365, -2.990723
1490335945.649404, 1490335945.651819, -0.147400, +0.985291, +0.114075, +8.697510, +5.020142, -1.907349
1490335945.652084, 1490335945.654492, -0.158936, +0.985291, +0.114075, +8.697510, +5.020142, -1.907349
1490335945.654757, 1490335945.657171, -0.158936, +0.985291, +0.114075, +7.141113, +4.425049, -1.617432
1490335945.657437, 1490335945.659853, -0.158936, +0.985291, +0.114075, +7.141113, +4.425049, -1.617432
1490335945.660117, 1490335945.662535, -0.142822, +1.006714, +0.111877, +7.949829, +4.287720, -2.258301
1490335945.662798, 1490335945.665204, -0.142822, +1.006714, +0.111877, +7.949829, +4.287720, -2.258301
1490335945.665469, 1490335945.667892, -0.142822, +1.006714, +0.111877, +8.850098, +4.638672, -2.349854
1490335945.668156, 1490335945.670570, -0.142822, +1.006714, +0.111877, +8.850098, +4.638672, -2.349854
1490335945.670833, 1490335945.673247, -0.143005, +1.000854, +0.127258, +8.499146, +4.837036, -1.220703
1490335945.673511, 1490335945.675921, -0.143005, +1.000854, +0.127258, +8.499146, +4.837036, -1.220703
1490335945.676186, 1490335945.678654, -0.143005, +1.000854, +0.127258, +7.354736, +4.241943, -1.724243
1490335945.678918, 1490335945.681331, -0.140991, +0.984375, +0.126526, +7.354736, +4.241943, -1.724243
1490335945.681596, 1490335945.684008, -0.140991, +0.984375, +0.126526, +7.980347, +4.211426, -2.410889
1490335945.684270, 1490335945.686682, -0.140991, +0.984375, +0.126526, +7.980347, +4.211426, -2.410889
1490335945.686946, 1490335945.689256, -0.140991, +0.984375, +0.126526, +8.865356, +4.913330, -1.358032
1490335945.689514, 1490335945.691800, -0.133850, +0.967163, +0.133667, +8.865356, +4.913330, -1.358032
1490335945.692058, 1490335945.694347, -0.133850, +0.967163, +0.133667, +8.865356, +4.867554, -0.656128
1490335945.694604, 1490335945.696894, -0.133850, +0.967163, +0.133667, +7.949829, +4.867554, -0.656128
1490335945.697159, 1490335945.699570, -0.133850, +0.967163, +0.133667, +7.949829, +4.867554, -1.144409
1490335945.699835, 1490335945.702243, -0.147766, +0.955994, +0.140808, +8.377075, +3.829956, -1.144409
1490335945.702509, 1490335945.704917, -0.147766, +0.955994, +0.140808, +8.377075, +3.829956, -0.656128
1490335945.705183, 1490335945.707641, -0.147766, +0.955994, +0.140808, +8.544922, +3.936768, -0.656128
1490335945.707907, 1490335945.710313, -0.241516, +0.966064, +0.177795, +8.544922, +3.936768, +3.250122
1490335945.710578, 1490335945.712989, -0.263855, +0.966064, +0.177795, +6.637573, +4.455566, +0.961304
1490335945.713253, 1490335945.715666, -0.263855, +0.966064, +0.177795, +6.637573, +4.455566, +0.961304
1490335945.715931, 1490335945.718350, -0.263855, +0.966064, +0.177795, +6.149292, +3.936768, +0.350952
1490335945.718616, 1490335945.721024, -0.167908, +1.043518, +0.166992, +6.149292, +3.936768, +0.350952
1490335945.721288, 1490335945.723699, -0.167908, +1.043518, +0.166992, +7.080078, +5.233765, -0.473022
1490335945.723963, 1490335945.726379, -0.167908, +1.043518, +0.166992, +7.080078, +5.233765, -0.473022
1490335945.726642, 1490335945.728958, -0.167908, +1.043518, +0.123413, +6.698608, +5.233765, -0.518799
1490335945.729217, 1490335945.731501, -0.113892, +1.085632, +0.123413, +6.698608, +5.233765, -0.518799
1490335945.731760, 1490335945.734048, -0.113892, +1.085632, +0.123413, +6.088257, +4.058838, -0.869751
1490335945.734307, 1490335945.736591, -0.113892, +1.085632, +0.123413, +6.088257, +4.058838, -0.869751
1490335945.736849, 1490335945.739276, -0.113892, +1.049011, +0.110962, +5.706787, +2.166748, -3.204346
1490335945.739540, 1490335945.741951, -0.093018, +1.049011, +0.110962, +5.706787, +2.166748, -3.204346
1490335945.742217, 1490335945.744622, -0.093018, +1.049011, +0.110962, +6.515503, +1.373291, -4.592896
1490335945.744887, 1490335945.747309, -0.093018, +1.049011, +0.110962, +6.515503, +1.373291, -4.592896
1490335945.747686, 1490335945.750101, -0.127258, +0.988953, +0.137146, +6.347656, +0.946045, -4.669189
1490335945.750366, 1490335945.752776, -0.127258, +0.988953, +0.137146, +6.347656, +0.946045, -4.669189
1490335945.753040, 1490335945.755452, -0.127258, +0.988953, +0.137146, +6.347656, +0.488281, -4.989624
1490335945.755715, 1490335945.758139, -0.127258, +0.988953, +0.184021, +5.355835, +0.488281, -4.989624
1490335945.758402, 1490335945.760809, -0.118103, +0.981628, +0.150146, +5.355835, -1.052856, -6.576538
1490335945.761072, 1490335945.763482, -0.118103, +0.981628, +0.150146, +5.783081, -1.052856, -6.576538
1490335945.763747, 1490335945.766152, -0.118103, +0.981628, +0.150146, +5.783081, -1.052856, -7.049561
1490335945.766415, 1490335945.768837, -0.118103, +0.973206, +0.152710, +6.744385, -1.647949, -7.049561
1490335945.769101, 1490335945.771513, -0.127075, +0.973206, +0.152710, +6.744385, -1.647949, -5.981445
1490335945.771776, 1490335945.774186, -0.127075, +0.973206, +0.152710, +6.271362, -2.288818, -5.981445
1490335945.774451, 1490335945.776863, -0.127075, +0.973206, +0.152710, +6.271362, -2.288818, -5.981445
1490335945.777136, 1490335945.779424, -0.150146, +0.976135, +0.154724, +5.645752, -3.158569, -6.347656
1490335945.779680, 1490335945.781965, -0.150146, +0.976135, +0.154724, +5.645752, -3.158569, -6.347656
1490335945.782222, 1490335945.784508, -0.150146, +0.976135, +0.154724, +6.912231, -2.868652, -6.698608
1490335945.784765, 1490335945.787076, -0.150146, +0.976135, +0.154724, +6.912231, -2.868652, -6.698608
1490335945.787341, 1490335945.789753, -0.163330, +0.976135, +0.152893, +7.217407, -2.136230, -5.447388
1490335945.790019, 1490335945.792430, -0.163330, +0.976135, +0.152893, +7.217407, -2.136230, -5.447388
1490335945.792693, 1490335945.795106, -0.163330, +0.976135, +0.152893, +6.790161, -2.517700, -5.935669
1490335945.795372, 1490335945.797836, -0.163330, +0.984375, +0.149414, +6.790161, -2.517700, -5.935669
1490335945.798100, 1490335945.800512, -0.150879, +0.984375, +0.149414, +7.202148, -2.288818, -6.622314
1490335945.800778, 1490335945.803189, -0.150879, +0.984375, +0.149414, +7.202148, -2.288818, -6.622314
1490335945.803454, 1490335945.805871, -0.150879, +0.984375, +0.149414, +7.690430, -1.815796, -5.615234
1490335945.806136, 1490335945.808552, -0.147949, +1.001221, +0.157654, +7.690430, -1.815796, -5.615234
1490335945.808816, 1490335945.811227, -0.147949, +1.001221, +0.157654, +7.202148, -2.700806, -5.264282
1490335945.811490, 1490335945.813897, -0.147949, +1.001221, +0.157654, +7.202148, -2.700806, -5.264282
1490335945.814161, 1490335945.816568, -0.147949, +1.001221, +0.157654, +7.888794, -3.555298, -6.591797
1490335945.816833, 1490335945.819256, -0.152527, +1.008362, +0.148499, +7.888794, -3.555298, -6.591797
1490335945.819520, 1490335945.821929, -0.152527, +1.008362, +0.148499, +7.888794, -3.097534, -5.661011
1490335945.822192, 1490335945.824605, -0.152527, +1.008362, +0.148499, +8.438110, -3.097534, -5.661011
1490335945.824870, 1490335945.827283, -0.160950, +1.016418, +0.152527, +8.438110, -3.097534, -5.096436
1490335945.827542, 1490335945.829828, -0.160950, +1.016418, +0.152527, +7.583618, -3.631592, -5.096436
1490335945.830085, 1490335945.832367, -0.160950, +1.016418, +0.152527, +7.583618, -3.631592, -6.393433
1490335945.832625, 1490335945.834907, -0.160950, +1.016418, +0.152527, +6.698608, -4.379272, -6.393433
1490335945.835165, 1490335945.837485, -0.231628, +1.019165, +0.173218, +6.698608, -4.379272, -6.393433
1490335945.837750, 1490335945.840163, -0.231628, +1.019165, +0.173218, +6.958008, -3.494263, -6.469727
1490335945.840426, 1490335945.842838, -0.231628, +1.019165, +0.173218, +6.958008, -3.494263, -6.469727
1490335945.843100, 1490335945.845508, -0.231628, +1.019165, +0.173218, +6.759644, -1.754761, -4.959106
1490335945.845771, 1490335945.848221, -0.144836, +1.038574, +0.157104, +6.759644, -1.754761, -4.959106
1490335945.848484, 1490335945.850891, -0.144836, +1.038574, +0.157104, +6.317139, -1.251221, -5.157471
1490335945.851260, 1490335945.853674, -0.144836, +1.038574, +0.157104, +6.317139, -1.251221, -5.157471
1490335945.853937, 1490335945.856344, -0.097961, +1.023743, +0.127258, +7.095337, -1.892090, -6.927490
1490335945.856608, 1490335945.859026, -0.112244, +1.023743, +0.127258, +7.095337, -1.892090, -6.927490
1490335945.859289, 1490335945.861700, -0.112244, +1.023743, +0.127258, +7.446289, -2.044678, -7.812500
1490335945.861964, 1490335945.864373, -0.112244, +1.023743, +0.127258, +7.446289, -2.044678, -7.812500
1490335945.864636, 1490335945.867056, -0.142273, +0.999939, +0.150513, +6.195068, -2.044678, -7.553101
1490335945.867322, 1490335945.869727, -0.142273, +0.999939, +0.150513, +6.195068, -2.044678, -7.553101
1490335945.869990, 1490335945.872399, -0.142273, +0.999939, +0.150513, +5.889893, -2.822876, -8.026123
1490335945.872664, 1490335945.875076, -0.142273, +0.999939, +0.165344, +5.889893, -2.822876, -8.026123
1490335945.875340, 1490335945.877717, -0.136963, +0.976685, +0.165344, +6.912231, -3.402710, -9.124756
1490335945.877975, 1490335945.880255, -0.136963, +0.976685, +0.165344, +6.912231, -3.402710, -9.124756
1490335945.880512, 1490335945.882800, -0.136963, +0.976685, +0.165344, +6.912231, -2.777100, -8.575439
1490335945.883058, 1490335945.885345, -0.183838, +0.972839, +0.175598, +7.797241, -2.777100, -8.575439
1490335945.885602, 1490335945.887943, -0.157288, +0.972839, +0.175598, +7.797241, -2.777100, -7.415771
1490335945.888208, 1490335945.890618, -0.157288, +0.972839, +0.175598, +7.659912, -1.937866, -7.415771
1490335945.890882, 1490335945.893289, -0.157288, +0.972839, +0.175598, +7.659912, -1.937866, -7.415771
1490335945.893552, 1490335945.895962, -0.185669, +0.982178, +0.192261, +6.973267, -0.244141, -6.759644
1490335945.896225, 1490335945.898648, -0.185669, +0.982178, +0.192261, +6.973267, -0.244141, -6.759644
1490335945.898912, 1490335945.901322, -0.185669, +0.982178, +0.192261, +7.308960, +2.426147, -7.904053
1490335945.901586, 1490335945.903995, -0.185669, +0.982178, +0.145386, +7.308960, +2.426147, -7.904053
1490335945.904260, 1490335945.906664, -0.176331, +0.974487, +0.163147, +8.590698, +4.669189, -7.690430
1490335945.906929, 1490335945.909766, -0.176331, +0.974487, +0.163147, +8.590698, +4.669189, -7.690430
1490335945.910027, 1490335945.912309, -0.176331, +0.974487, +0.163147, +8.499146, +5.523682, -5.584717
1490335945.912568, 1490335945.914848, -0.163513, +0.960571, +0.150696, +8.499146, +5.523682, -5.584717
1490335945.915106, 1490335945.917633, -0.163513, +0.960571, +0.150696, +7.019043, +5.584717, -3.890991
1490335945.917890, 1490335945.920174, -0.163513, +0.960571, +0.150696, +7.019043, +5.584717, -3.890991
1490335945.920430, 1490335945.922709, -0.163513, +0.960571, +0.150696, +7.202148, +5.004883, -3.692627
1490335945.922967, 1490335945.925251, -0.158386, +0.973206, +0.132385, +7.202148, +5.004883, -3.692627
1490335945.925507, 1490335945.927892, -0.158386, +0.973206, +0.132385, +8.544922, +5.477905, -3.738403
1490335945.928151, 1490335945.930430, -0.158386, +0.973206, +0.132385, +8.544922, +5.477905, -3.738403
1490335945.930688, 1490335945.932963, -0.158386, +0.973206, +0.132385, +7.217407, +5.752563, -2.349854
1490335945.933220, 1490335945.935501, -0.155090, +0.973389, +0.141174, +7.217407, +5.752563, -2.349854
1490335945.935757, 1490335945.938050, -0.155090, +0.973389, +0.141174, +7.217407, +5.752563, -2.593994
1490335945.938306, 1490335945.940589, -0.155090, +0.973389, +0.141174, +6.271362, +4.943848, -2.593994
1490335945.940845, 1490335945.943127, -0.155090, +0.973389, +0.138245, +6.271362, +4.943848, -2.593994
1490335945.943383, 1490335945.945667, -0.162415, +0.983459, +0.138245, +7.186890, +4.806519, -2.899170
1490335945.945925, 1490335945.948235, -0.162415, +0.983459, +0.138245, +7.186890, +4.806519, -2.899170
1490335945.948493, 1490335945.950767, -0.162415, +0.983459, +0.138245, +6.713867, +4.852295, -1.342773
1490335945.951024, 1490335945.953309, -0.162415, +0.992249, +0.144470, +6.713867, +4.852295, -1.342773
1490335945.953566, 1490335945.955845, -0.161682, +0.992249, +0.144470, +6.454468, +4.714966, -1.602173
1490335945.956211, 1490335945.958624, -0.161682, +0.992249, +0.144470, +6.454468, +4.714966, -1.602173
1490335945.958888, 1490335945.961286, -0.161682, +0.992249, +0.144470, +6.729126, +5.905151, -1.525879
1490335945.961549, 1490335945.963943, -0.151978, +1.004517, +0.144653, +6.729126, +5.905151, -1.525879
1490335945.964207, 1490335945.966600, -0.151978, +1.004517, +0.144653, +6.484985, +7.171631, -1.434326
1490335945.966863, 1490335945.969267, -0.151978, +1.004517, +0.144653, +6.484985, +7.171631, -1.434326
1490335945.969530, 1490335945.971926, -0.151978, +1.004517, +0.144653, +7.446289, +8.682251, -1.388550
1490335945.972190, 1490335945.974586, -0.140442, +1.003967, +0.138428, +7.446289, +8.682251, -1.388550
1490335945.974850, 1490335945.977246, -0.140442, +1.003967, +0.138428, +7.446289, +10.162354, -0.885010
1490335945.977509, 1490335945.979805, -0.140442, +1.003967, +0.138428, +6.973267, +10.162354, -0.885010
1490335945.980067, 1490335945.982355, -0.140442, +1.003967, +0.171204, +6.973267, +14.068604, -1.296997
1490335945.982615, 1490335945.984902, -0.152344, +0.991150, +0.171204, +7.934570, +15.380859, -1.296997
1490335945.985163, 1490335945.987522, -0.152344, +0.991150, +0.171204, +7.934570, +15.380859, -1.296997
1490335945.987789, 1490335945.990184, -0.152344, +0.991150, +0.171204, +8.529663, +22.613525, -0.762939
1490335945.990453, 1490335945.992850, -0.160400, +0.970825, +0.158386, +8.529663, +22.613525, -0.762939
1490335945.993117, 1490335945.995510, -0.160400, +0.970825, +0.158386, +9.628296, +27.740479, -0.869751
1490335945.995778, 1490335945.998221, -0.160400, +0.970825, +0.158386, +9.628296, +27.740479, -0.869751
1490335945.998488, 1490335946.000885, -0.160400, +0.970825, +0.158386, +10.833740, +32.165527, +0.976562
1490335946.001154, 1490335946.003549, -0.169189, +0.936584, +0.164246, +10.833740, +32.165527, +0.976562
1490335946.003818, 1490335946.006213, -0.169189, +0.936584, +0.164246, +10.696411, +33.920288, +2.349854
1490335946.006483, 1490335946.008896, -0.169189, +0.936584, +0.164246, +10.696411, +33.920288, +2.349854
1490335946.009164, 1490335946.011564, -0.169189, +0.983459, +0.154175, +12.405396, +32.882690, +4.058838
1490335946.011832, 1490335946.014229, -0.179260, +0.938965, +0.154175, +12.405396, +32.882690, +4.058838
1490335946.014498, 1490335946.016895, -0.179260, +0.938965, +0.154175, +11.825562, +32.028198, +8.026123
1490335946.017164, 1490335946.019564, -0.179260, +0.938965, +0.154175, +11.825562, +32.028198, +8.026123
1490335946.019833, 1490335946.022226, -0.206543, +0.975220, +0.138428, +12.023926, +31.372070, +9.429932
1490335946.022498, 1490335946.024892, -0.206543, +0.975220, +0.138428, +12.023926, +31.372070, +9.429932
1490335946.025161, 1490335946.027540, -0.206543, +0.975220, +0.138428, +12.939453, +31.631470, +11.428833
1490335946.027807, 1490335946.030100, -0.206543, +0.975220, +0.138428, +12.939453, +31.631470, +11.428833
1490335946.030367, 1490335946.032655, -0.189514, +1.036194, +0.154175, +12.939453, +31.982422, +14.877319
1490335946.032919, 1490335946.035247, -0.189514, +1.036194, +0.154175, +12.557983, +31.982422, +14.877319
1490335946.035511, 1490335946.037908, -0.189514, +1.036194, +0.154175, +12.557983, +31.982422, +16.357422
1490335946.038180, 1490335946.040596, -0.189514, +1.036194, +0.145386, +12.969971, +31.890869, +16.357422
1490335946.040870, 1490335946.043279, -0.180359, +1.076294, +0.145386, +12.969971, +31.890869, +17.776489
1490335946.043553, 1490335946.045967, -0.180359, +1.076294, +0.145386, +14.816284, +31.829834, +17.776489
1490335946.046240, 1490335946.048663, -0.180359, +1.076294, +0.145386, +14.816284, +31.829834, +20.889282
1490335946.048936, 1490335946.051350, -0.141541, +1.047180, +0.175415, +14.953613, +31.494141, +20.889282
1490335946.051623, 1490335946.054036, -0.141541, +1.047180, +0.175415, +14.953613, +31.494141, +20.889282
1490335946.054308, 1490335946.056713, -0.141541, +1.047180, +0.175415, +14.907837, +30.242920, +21.881104
1490335946.057028, 1490335946.059439, -0.141541, +1.047180, +0.175415, +14.907837, +30.242920, +21.881104
1490335946.059824, 1490335946.062229, -0.142090, +1.000854, +0.213684, +15.274048, +30.014038, +22.842407
1490335946.062503, 1490335946.064903, -0.142090, +1.000854, +0.213684, +15.274048, +30.014038, +22.842407
1490335946.065178, 1490335946.067630, -0.142090, +1.000854, +0.213684, +14.312744, +28.945923, +24.963379
1490335946.067905, 1490335946.070301, -0.142090, +0.985291, +0.210571, +14.312744, +28.945923, +24.963379
1490335946.070575, 1490335946.072969, -0.162964, +0.985291, +0.210571, +14.892578, +27.618408, +25.436401
1490335946.073242, 1490335946.075638, -0.162964, +0.985291, +0.210571, +14.892578, +27.618408, +25.436401
1490335946.075912, 1490335946.078263, -0.162964, +0.985291, +0.210571, +14.907837, +27.465820, +26.901245
1490335946.078529, 1490335946.080818, -0.163147, +0.989502, +0.220642, +14.907837, +27.465820, +26.901245
1490335946.081084, 1490335946.083376, -0.163147, +0.989502, +0.220642, +14.282227, +25.451660, +26.748657
1490335946.083641, 1490335946.085933, -0.163147, +0.989502, +0.220642, +14.282227, +25.451660, +26.748657
1490335946.086198, 1490335946.088575, -0.163147, +0.989502, +0.220642, +15.197754, +23.025513, +25.817871
1490335946.088849, 1490335946.091261, -0.145020, +1.008362, +0.171387, +15.197754, +23.025513, +25.817871
1490335946.091537, 1490335946.093950, -0.145020, +1.008362, +0.171387, +14.404297, +20.126343, +26.977539
1490335946.094222, 1490335946.096633, -0.145020, +1.008362, +0.171387, +14.404297, +20.126343, +26.977539
1490335946.096907, 1490335946.099328, -0.145020, +0.999023, +0.096680, +14.297485, +17.318726, +26.306152
1490335946.099605, 1490335946.102020, -0.094299, +0.999023, +0.096680, +14.297485, +17.318726, +26.306152
1490335946.102294, 1490335946.104707, -0.094299, +0.999023, +0.096680, +14.297485, +17.425537, +24.017334
1490335946.104982, 1490335946.107438, -0.094299, +0.999023, +0.096680, +13.107300, +17.425537, +24.017334
1490335946.107713, 1490335946.110126, -0.031311, +1.022278, +0.075256, +13.107300, +17.578125, +22.415161
1490335946.110400, 1490335946.112807, -0.031311, +1.022278, +0.075256, +11.444092, +17.578125, +22.415161
1490335946.113081, 1490335946.115487, -0.031311, +1.022278, +0.075256, +11.444092, +17.578125, +19.943237
1490335946.115760, 1490335946.118169, -0.031311, +1.022278, +0.028381, +10.208130, +17.562866, +19.943237
1490335946.118444, 1490335946.120858, -0.014282, +1.016052, +0.044861, +10.208130, +17.562866, +19.546509
1490335946.121131, 1490335946.123543, -0.014282, +1.016052, +0.044861, +9.918213, +19.378662, +19.546509
1490335946.123814, 1490335946.126225, -0.014282, +1.016052, +0.044861, +9.918213, +19.378662, +18.051147
1490335946.126495, 1490335946.128828, -0.014282, +0.990601, +0.025818, +8.071899, +20.431519, +18.051147
1490335946.129094, 1490335946.131381, -0.024719, +0.990601, +0.025818, +8.071899, +20.431519, +18.051147
1490335946.131645, 1490335946.133928, -0.024719, +0.990601, +0.025818, +7.095337, +22.094727, +16.082764
1490335946.134193, 1490335946.136479, -0.024719, +0.990601, +0.025818, +7.095337, +22.094727, +16.082764
1490335946.136745, 1490335946.139150, -0.065002, +0.971558, +0.052917, +5.813599, +24.841309, +16.250610
1490335946.139423, 1490335946.141831, -0.065002, +0.971558, +0.052917, +5.813599, +24.841309, +16.250610
1490335946.142103, 1490335946.144508, -0.065002, +0.971558, +0.052917, +4.669189, +25.726318, +14.236450
1490335946.144779, 1490335946.147236, -0.065002, +0.971558, +0.052917, +4.669189, +25.726318, +14.236450
1490335946.147507, 1490335946.149918, -0.051636, +0.951416, +0.056213, +3.570557, +27.221680, +13.397217
1490335946.150190, 1490335946.152601, -0.051636, +0.951416, +0.056213, +3.570557, +27.221680, +13.397217
1490335946.152875, 1490335946.155284, -0.051636, +0.951416, +0.056213, +2.166748, +29.327393, +11.779785
1490335946.155556, 1490335946.157976, +0.042114, +0.914429, +0.089722, +2.166748, +29.327393, +11.779785
1490335946.158248, 1490335946.160657, +0.000549, +0.914429, +0.089722, +2.075195, +30.532837, +11.169434
1490335946.160930, 1490335946.163342, +0.000549, +0.914429, +0.089722, +2.075195, +30.532837, +11.169434
1490335946.163722, 1490335946.166137, +0.000549, +0.914429, +0.089722, +0.152588, +30.227661, +10.879517
1490335946.166409, 1490335946.168830, -0.037170, +0.893921, +0.126526, +0.152588, +30.227661, +10.879517
1490335946.169103, 1490335946.171513, -0.037170, +0.893921, +0.126526, -0.686646, +29.022217, +8.728027
1490335946.171783, 1490335946.174191, -0.037170, +0.893921, +0.126526, -0.686646, +29.022217, +8.728027
1490335946.174461, 1490335946.176874, -0.037170, +0.893921, +0.196655, -0.686646, +27.969360, +8.117676
1490335946.177152, 1490335946.179438, -0.090271, +0.899963, +0.196655, -1.480103, +27.969360, +8.117676
1490335946.179700, 1490335946.181987, -0.090271, +0.899963, +0.196655, -1.480103, +24.063110, +8.087158
1490335946.182249, 1490335946.184537, -0.090271, +0.899963, +0.196655, -2.822876, +25.711060, +8.087158
1490335946.184798, 1490335946.187092, -0.090271, +0.912964, +0.225586, -2.822876, +25.711060, +4.180908
1490335946.187355, 1490335946.189644, -0.066650, +0.912964, +0.225586, -2.822876, +24.078369, +6.744385
1490335946.189905, 1490335946.192189, -0.066650, +0.912964, +0.225586, -2.822876, +24.078369, +6.744385
1490335946.192451, 1490335946.194733, -0.066650, +0.912964, +0.225586, -2.487183, +22.537231, +7.232666
1490335946.194995, 1490335946.197313, -0.062622, +0.928162, +0.212769, -2.487183, +22.537231, +7.232666
1490335946.197584, 1490335946.199978, -0.062622, +0.928162, +0.212769, -2.288818, +20.721436, +6.698608
1490335946.200244, 1490335946.202643, -0.062622, +0.928162, +0.212769, -2.288818, +20.721436, +6.698608
1490335946.202911, 1490335946.205310, -0.062622, +0.928162, +0.212769, -1.800537, +19.241333, +5.935669
1490335946.205577, 1490335946.208021, -0.140808, +0.948486, +0.272827, -1.800537, +19.241333, +5.935669
1490335946.208288, 1490335946.210684, -0.140808, +0.948486, +0.272827, -2.410889, +17.211914, +7.659912
1490335946.210952, 1490335946.213354, -0.140808, +0.948486, +0.272827, -2.410889, +17.211914, +7.659912
1490335946.213621, 1490335946.216025, -0.140808, +0.995361, +0.268616, -2.090454, +14.556885, +8.453369
1490335946.216294, 1490335946.218706, -0.256165, +0.999573, +0.268616, -2.090454, +14.556885, +8.453369
1490335946.218974, 1490335946.221377, -0.256165, +0.999573, +0.268616, -0.274658, +14.755249, +9.155273
1490335946.221645, 1490335946.224043, -0.256165, +0.999573, +0.268616, -0.274658, +14.755249, +9.155273
1490335946.224311, 1490335946.226707, -0.259827, +1.041870, +0.202332, -0.274658, +17.868042, +10.650635
1490335946.226977, 1490335946.229422, -0.259827, +1.041870, +0.202332, -0.518799, +17.868042, +10.650635
1490335946.229692, 1490335946.232096, -0.259827, +1.041870, +0.202332, -0.518799, +19.989014, +11.077881
1490335946.232367, 1490335946.234770, -0.259827, +1.041870, +0.202332, -1.922607, +19.989014, +11.077881
1490335946.235040, 1490335946.237447, -0.149048, +1.136169, +0.186401, -1.922607, +19.989014, +9.826660
1490335946.237714, 1490335946.240112, -0.149048, +1.136169, +0.186401, -0.839233, +23.071289, +9.826660
1490335946.240382, 1490335946.242782, -0.149048, +1.136169, +0.186401, -0.839233, +23.071289, +10.208130
1490335946.243053, 1490335946.245454, -0.149048, +1.144226, +0.215515, +0.350952, +24.795532, +10.208130
1490335946.245724, 1490335946.248144, -0.039001, +1.144226, +0.215515, +0.350952, +24.795532, +8.590698
1490335946.248414, 1490335946.250829, -0.039001, +1.144226, +0.215515, +1.678467, +23.269653, +8.590698
1490335946.251097, 1490335946.253506, -0.039001, +1.144226, +0.215515, +1.678467, +23.269653, +8.590698
1490335946.253774, 1490335946.256184, +0.009155, +1.081055, +0.192444, +4.379272, +21.041870, +8.666992
1490335946.256453, 1490335946.258877, +0.009155, +1.081055, +0.192444, +4.379272, +21.041870, +8.666992
1490335946.259145, 1490335946.261555, +0.009155, +1.081055, +0.192444, +4.287720, +16.754150, +9.063721
1490335946.261824, 1490335946.264238, +0.009155, +1.081055, +0.145569, +4.287720, +16.754150, +9.063721
1490335946.264508, 1490335946.266918, -0.058228, +1.005432, +0.162231, +4.928589, +13.336182, +7.583618
1490335946.267337, 1490335946.269748, -0.058228, +1.005432, +0.162231, +4.928589, +13.336182, +7.583618
1490335946.270016, 1490335946.272426, -0.058228, +1.005432, +0.162231, +5.783081, +11.779785, +7.232666
1490335946.272693, 1490335946.275104, -0.122314, +0.992432, +0.206177, +5.783081, +11.779785, +7.232666
1490335946.275373, 1490335946.277832, -0.122314, +0.992432, +0.206177, +4.196167, +8.895874, +7.019043
1490335946.278099, 1490335946.280511, -0.122314, +0.992432, +0.206177, +4.196167, +8.895874, +7.019043
1490335946.280776, 1490335946.283186, -0.122314, +0.992432, +0.206177, +4.806519, +4.638672, +6.652832
1490335946.283450, 1490335946.285861, -0.133667, +1.030518, +0.180725, +4.806519, +4.638672, +6.652832
1490335946.286126, 1490335946.288482, -0.133667, +1.030518, +0.180725, +6.332397, +0.946045, +6.362915
1490335946.288740, 1490335946.291029, -0.133667, +1.030518, +0.180725, +6.332397, +0.946045, +6.362915
1490335946.291285, 1490335946.293568, -0.133667, +1.030518, +0.225220, +7.125854, -2.136230, +8.346558
1490335946.293824, 1490335946.296110, -0.132935, +1.041138, +0.225220, +7.125854, -2.136230, +8.346558
1490335946.296367, 1490335946.298656, -0.132935, +1.041138, +0.225220, +11.032104, -5.874634, +8.331299
1490335946.298917, 1490335946.301204, -0.132935, +1.041138, +0.225220, +7.934570, -5.874634, +8.331299
1490335946.301460, 1490335946.303750, -0.132935, +1.036926, +0.270813, +7.934570, -5.874634, +8.651733
1490335946.304005, 1490335946.306287, -0.159119, +1.036926, +0.270813, +10.162354, -7.553101, +8.651733
1490335946.306548, 1490335946.308945, -0.159119, +1.036926, +0.270813, +10.162354, -7.553101, +8.651733
1490335946.309216, 1490335946.311629, -0.159119, +1.036926, +0.270813, +11.108398, -7.659912, +10.986328
1490335946.311900, 1490335946.314310, -0.120300, +1.020447, +0.287659, +11.108398, -7.659912, +10.986328
1490335946.314583, 1490335946.317035, -0.120300, +1.020447, +0.287659, +13.046265, -9.063721, +10.925293
1490335946.317309, 1490335946.319723, -0.120300, +1.020447, +0.287659, +13.046265, -9.063721, +10.925293
1490335946.319993, 1490335946.322409, -0.120300, +1.020447, +0.287659, +14.831543, -8.773804, +12.420654
1490335946.322681, 1490335946.325095, -0.059326, +0.984009, +0.226135, +14.831543, -8.773804, +12.420654
1490335946.325370, 1490335946.327840, -0.059326, +0.984009, +0.226135, +13.717651, -8.468628, +13.290405
1490335946.328112, 1490335946.330523, -0.059326, +0.984009, +0.226135, +13.717651, -8.468628, +13.290405
1490335946.330795, 1490335946.333205, -0.059326, +0.975952, +0.168640, +14.648438, -7.171631, +12.863159
1490335946.333477, 1490335946.335888, -0.065552, +0.975952, +0.168640, +14.648438, -7.171631, +12.863159
1490335946.336160, 1490335946.338578, -0.065552, +0.975952, +0.168640, +13.763428, -4.180908, +14.556885
1490335946.338851, 1490335946.341262, -0.065552, +0.975952, +0.168640, +13.763428, -4.180908, +14.556885
1490335946.341535, 1490335946.343943, -0.106384, +0.979065, +0.162415, +12.680054, -2.990723, +15.579224
1490335946.344215, 1490335946.346626, -0.106384, +0.979065, +0.162415, +12.680054, -2.990723, +15.579224
1490335946.346897, 1490335946.349208, -0.106384, +0.979065, +0.162415, +13.183594, -1.907349, +15.502930
1490335946.349473, 1490335946.351756, -0.106384, +0.979065, +0.162415, +13.183594, -1.907349, +15.502930
1490335946.352021, 1490335946.354306, -0.132202, +0.969727, +0.158569, +13.397217, +0.030518, +17.593384
1490335946.354569, 1490335946.356857, -0.132202, +0.969727, +0.158569, +13.397217, +0.030518, +17.593384
1490335946.357128, 1490335946.359535, -0.132202, +0.969727, +0.158569, +13.397217, +1.144409, +19.119263
1490335946.359808, 1490335946.362217, -0.132202, +0.971741, +0.191162, +12.084961, +1.144409, +19.119263
1490335946.362489, 1490335946.364896, -0.126343, +0.971741, +0.191162, +12.084961, +1.144409, +18.768311
1490335946.365168, 1490335946.367620, -0.126343, +0.971741, +0.191162, +12.741089, +2.960205, +18.768311
1490335946.367892, 1490335946.370299, -0.126343, +0.971741, +0.191162, +12.741089, +2.960205, +21.331787
1490335946.370571, 1490335946.372980, -0.107849, +0.961121, +0.230164, +12.802124, +4.821777, +21.331787
1490335946.373361, 1490335946.375766, -0.107849, +0.961121, +0.230164, +12.802124, +4.821777, +21.942139
1490335946.376039, 1490335946.378462, -0.107849, +0.961121, +0.230164, +12.466431, +4.806519, +21.942139
1490335946.378735, 1490335946.381146, -0.107849, +0.961121, +0.223755, +12.466431, +4.806519, +21.942139
1490335946.381418, 1490335946.383827, -0.145935, +0.951599, +0.223755, +11.993408, +4.486084, +23.300171
1490335946.384099, 1490335946.386509, -0.145935, +0.951599, +0.223755, +11.993408, +4.486084, +27.206421
1490335946.386781, 1490335946.389117, -0.145935, +0.951599, +0.223755, +11.077881, +3.097534, +25.299072
1490335946.389382, 1490335946.391670, -0.089539, +0.972839, +0.181824, +11.077881, +3.097534, +25.299072
1490335946.391936, 1490335946.394216, -0.089539, +0.972839, +0.181824, +11.260986, +3.356934, +25.390625
1490335946.394480, 1490335946.396764, -0.089539, +0.972839, +0.181824, +11.260986, +3.356934, +25.390625
1490335946.397055, 1490335946.399467, -0.089539, +0.972839, +0.181824, +10.772705, +3.417969, +27.435303
1490335946.399740, 1490335946.402151, -0.112427, +0.995728, +0.174683, +10.772705, +3.417969, +27.435303
1490335946.402421, 1490335946.404833, -0.112427, +0.995728, +0.174683, +9.063721, +1.251221, +28.030396
1490335946.405101, 1490335946.407527, -0.112427, +0.995728, +0.174683, +9.063721, +1.251221, +28.030396
1490335946.407797, 1490335946.410210, -0.112427, +0.995728, +0.174683, +9.857178, -0.274658, +27.755737
1490335946.410480, 1490335946.412893, -0.136597, +0.989319, +0.153442, +9.857178, -0.274658, +27.755737
1490335946.413162, 1490335946.415573, -0.136597, +0.989319, +0.153442, +8.682251, -0.396729, +29.251099
1490335946.415842, 1490335946.418277, -0.136597, +0.989319, +0.153442, +8.682251, -0.396729, +29.251099
1490335946.418546, 1490335946.420960, +0.097778, +1.058350, +0.121033, +8.529663, -1.861572, +29.479980
1490335946.421230, 1490335946.423644, +0.124695, +1.058350, +0.121033, +8.529663, -1.861572, +29.479980
1490335946.423914, 1490335946.426324, +0.124695, +1.058350, +0.121033, +8.529663, -6.652832, +29.663086
1490335946.426593, 1490335946.428962, +0.124695, +1.058350, +0.121033, +11.428833, -6.652832, +29.663086
1490335946.429227, 1490335946.431515, +0.112427, +1.032532, +0.176880, +11.428833, -10.559082, +29.785156
1490335946.431782, 1490335946.434069, +0.112427, +1.032532, +0.176880, +12.130737, -10.574341, +29.785156
1490335946.434338, 1490335946.436624, +0.112427, +1.032532, +0.176880, +12.130737, -10.574341, +27.984619
1490335946.436891, 1490335946.439181, +0.112427, +1.032532, +0.176880, +10.269165, -14.312744, +27.984619
1490335946.439449, 1490335946.441733, +0.032593, +0.971375, +0.176880, +10.269165, -14.312744, +27.984619
1490335946.442000, 1490335946.444283, +0.032593, +0.971375, +0.176880, +9.750366, -16.525269, +26.351929
1490335946.444546, 1490335946.446827, +0.032593, +0.971375, +0.176880, +9.750366, -16.525269, +26.351929
1490335946.447110, 1490335946.449516, +0.032593, +1.018250, +0.146118, +9.521484, -17.959595, +26.275635
1490335946.449789, 1490335946.452197, +0.116821, +1.014404, +0.146118, +9.521484, -17.959595, +26.275635
1490335946.452469, 1490335946.454885, +0.116821, +1.014404, +0.146118, +9.994507, -19.699097, +24.520874
1490335946.455156, 1490335946.457575, +0.116821, +1.014404, +0.146118, +9.994507, -19.699097, +24.520874
1490335946.457846, 1490335946.460263, +0.083130, +1.004883, +0.110596, +11.138916, -21.057129, +24.749756
1490335946.460539, 1490335946.462952, +0.083130, +1.004883, +0.110596, +11.138916, -21.057129, +24.749756
1490335946.463227, 1490335946.465637, +0.083130, +1.004883, +0.110596, +9.384155, -23.300171, +26.306152
1490335946.465911, 1490335946.468340, +0.083130, +1.004883, +0.110596, +9.384155, -23.300171, +26.306152
1490335946.468612, 1490335946.471021, -0.051636, +1.019531, +0.162964, +9.063721, -25.955200, +25.375366
1490335946.471293, 1490335946.473703, -0.051636, +1.019531, +0.162964, +9.063721, -25.955200, +25.375366
1490335946.473974, 1490335946.476387, -0.051636, +1.019531, +0.162964, +10.147095, -26.687622, +27.313232
1490335946.476773, 1490335946.479118, -0.004761, +1.051208, +0.175964, +10.147095, -26.687622, +27.313232
1490335946.479387, 1490335946.481675, -0.025818, +1.051208, +0.175964, +10.147095, -27.206421, +29.617310
1490335946.481941, 1490335946.484231, -0.025818, +1.051208, +0.175964, +8.529663, -27.206421, +29.617310
1490335946.484494, 1490335946.486781, -0.025818, +1.051208, +0.175964, +8.529663, -31.112671, +30.639648
1490335946.487055, 1490335946.489467, -0.073608, +1.072266, +0.136414, +8.560181, -27.526855, +30.639648
1490335946.489740, 1490335946.492149, -0.073608, +1.072266, +0.136414, +8.560181, -27.526855, +32.913208
1490335946.492421, 1490335946.494830, -0.073608, +1.072266, +0.136414, +8.392334, -26.336670, +32.913208
1490335946.495103, 1490335946.497525, -0.073608, +1.072266, +0.136414, +8.392334, -26.336670, +32.913208
1490335946.497799, 1490335946.500209, -0.026001, +1.086365, +0.140076, +6.927490, -25.497437, +34.606934
1490335946.500481, 1490335946.502891, -0.026001, +1.086365, +0.140076, +6.927490, -25.497437, +34.606934
1490335946.503161, 1490335946.505573, -0.026001, +1.086365, +0.140076, +5.920410, -24.490356, +36.193848
1490335946.505843, 1490335946.508264, -0.026001, +1.187622, +0.141907, +5.920410, -24.490356, +36.193848
1490335946.508535, 1490335946.510942, +0.001648, +1.187622, +0.141907, +4.791260, -25.009155, +37.780762
1490335946.511216, 1490335946.513622, +0.001648, +1.187622, +0.141907, +4.791260, -25.009155, +37.780762
1490335946.513894, 1490335946.516308, +0.001648, +1.187622, +0.141907, +6.118774, -25.268555, +37.048340
1490335946.516580, 1490335946.518938, +0.144470, +1.168030, +0.179077, +6.118774, -25.268555, +37.048340
1490335946.519201, 1490335946.521489, +0.144470, +1.168030, +0.179077, +4.760742, -26.092529, +38.818359
1490335946.521752, 1490335946.524038, +0.144470, +1.168030, +0.179077, +4.760742, -26.092529, +38.818359
1490335946.524300, 1490335946.526592, +0.144470, +1.168030, +0.179077, +3.265381, -29.357910, +40.344238
1490335946.526855, 1490335946.529295, +0.224487, +1.263611, +0.191162, +3.265381, -29.357910, +40.344238
1490335946.529567, 1490335946.531982, +0.224487, +1.263611, +0.191162, +5.523682, -32.806396, +40.054321
1490335946.532253, 1490335946.534667, +0.224487, +1.263611, +0.191162, +5.523682, -32.806396, +40.054321
1490335946.534938, 1490335946.537457, +0.224487, +1.271301, +0.223389, +7.339478, -37.338257, +42.373657
1490335946.537727, 1490335946.540105, +0.297729, +1.271301, +0.223389, +7.339478, -37.338257, +42.373657
1490335946.540373, 1490335946.542746, +0.297729, +1.271301, +0.223389, +11.245728, -41.198730, +42.312622
1490335946.543017, 1490335946.545390, +0.297729, +1.271301, +0.223389, +8.987427, -41.198730, +42.312622
1490335946.545660, 1490335946.548093, +0.138977, +1.189636, +0.293335, +8.987427, -43.472290, +42.617798
1490335946.548364, 1490335946.550777, +0.138977, +1.189636, +0.293335, +10.833740, -43.472290, +42.617798
1490335946.551051, 1490335946.553463, +0.138977, +1.189636, +0.293335, +10.833740, -47.378540, +42.892456
1490335946.553737, 1490335946.556151, +0.138977, +1.189636, +0.340210, +11.093140, -47.988892, +42.892456
1490335946.556425, 1490335946.558850, -0.078003, +1.168762, +0.364197, +11.093140, -47.988892, +42.098999
1490335946.559126, 1490335946.561539, -0.078003, +1.168762, +0.364197, +12.710571, -49.468994, +42.098999
1490335946.561812, 1490335946.564223, -0.078003, +1.168762, +0.364197, +12.710571, -49.468994, +43.212891
1490335946.564497, 1490335946.566905, -0.124878, +1.293274, +0.402832, +11.260986, -51.361084, +43.212891
1490335946.567190, 1490335946.569475, -0.116272, +1.293274, +0.402832, +11.260986, -51.361084, +39.306641
1490335946.569742, 1490335946.572028, -0.116272, +1.293274, +0.402832, +12.466431, -56.243896, +42.327881
1490335946.572293, 1490335946.574586, -0.116272, +1.293274, +0.402832, +12.466431, -56.243896, +42.327881
1490335946.574851, 1490335946.577142, +0.027466, +1.453857, +0.231995, +15.106201, -59.768677, +45.135498
1490335946.577409, 1490335946.579694, +0.027466, +1.453857, +0.231995, +15.106201, -59.768677, +45.135498
1490335946.580067, 1490335946.582355, +0.027466, +1.453857, +0.231995, +16.418457, -64.224243, +49.652100
1490335946.582622, 1490335946.584904, +0.027466, +1.453857, +0.231995, +16.418457, -64.224243, +49.652100
1490335946.585170, 1490335946.587481, +0.069946, +1.513916, +0.134033, +18.325806, -70.388794, +52.139282
1490335946.587755, 1490335946.590168, +0.069946, +1.513916, +0.134033, +18.325806, -70.388794, +52.139282
1490335946.590441, 1490335946.592853, +0.069946, +1.513916, +0.134033, +20.629883, -75.714111, +56.167603
1490335946.593127, 1490335946.595539, +0.069946, +1.467041, +0.104370, +20.629883, -75.714111, +56.167603
1490335946.595813, 1490335946.598239, -0.061157, +1.461365, +0.104370, +20.797729, -80.413818, +59.448242
1490335946.598514, 1490335946.600921, -0.061157, +1.461365, +0.104370, +20.797729, -80.413818, +59.448242
1490335946.601195, 1490335946.603608, -0.061157, +1.461365, +0.104370, +20.797729, -81.161499, +62.011719
1490335946.603882, 1490335946.606288, -0.144836, +1.477661, +0.085693, +22.674561, -81.161499, +62.011719
1490335946.606562, 1490335946.609022, -0.144836, +1.477661, +0.085693, +22.674561, -78.857422, +67.260742
1490335946.609296, 1490335946.611707, -0.144836, +1.477661, +0.085693, +23.147583, -78.857422, +67.260742
1490335946.611983, 1490335946.614392, -0.144836, +1.477661, +0.085693, +23.147583, -74.951172, +72.280884
1490335946.614667, 1490335946.617090, -0.210754, +1.559509, +0.093933, +22.460938, -76.354980, +72.280884
1490335946.617365, 1490335946.619779, -0.210754, +1.559509, +0.093933, +22.460938, -76.354980, +76.004028
1490335946.620053, 1490335946.622468, -0.210754, +1.559509, +0.093933, +24.002075, -72.799683, +76.004028
1490335946.622742, 1490335946.625156, -0.210754, +1.648499, +0.064819, +24.002075, -72.799683, +80.734253
1490335946.625430, 1490335946.627810, -0.274292, +1.648499, +0.064819, +25.665283, -67.596436, +80.734253
1490335946.628078, 1490335946.630368, -0.274292, +1.648499, +0.064819, +25.665283, -67.596436, +80.734253
1490335946.630635, 1490335946.632925, -0.274292, +1.648499, +0.064819, +26.031494, -62.515259, +84.289551
1490335946.633191, 1490335946.635482, -0.364197, +1.689880, +0.111328, +26.031494, -62.515259, +84.289551
1490335946.635749, 1490335946.638102, -0.364197, +1.689880, +0.111328, +28.686523, -58.776855, +87.295532
1490335946.638376, 1490335946.640786, -0.364197, +1.689880, +0.111328, +28.686523, -58.776855, +87.295532
1490335946.641057, 1490335946.643468, -0.364197, +1.689880, +0.111328, +30.349731, -57.739258, +92.361450
1490335946.643743, 1490335946.646151, -0.484314, +1.681641, +0.196289, +30.349731, -57.739258, +92.361450
1490335946.646427, 1490335946.648849, -0.484314, +1.681641, +0.196289, +33.157349, -54.397583, +97.763062
1490335946.649124, 1490335946.651536, -0.484314, +1.681641, +0.196289, +33.157349, -54.397583, +97.763062
1490335946.651809, 1490335946.654221, -0.484314, +1.704529, +0.277039, +34.179688, -49.057007, +106.414795
1490335946.654495, 1490335946.656905, -0.684448, +1.704529, +0.277039, +34.179688, -49.057007, +106.414795
1490335946.657179, 1490335946.659592, -0.684448, +1.704529, +0.277039, +34.149170, -43.197632, +113.876343
1490335946.659866, 1490335946.662273, -0.684448, +1.704529, +0.277039, +34.149170, -43.197632, +113.876343
1490335946.662549, 1490335946.664960, -0.791382, +1.782898, +0.417664, +35.385132, -38.146973, +121.765137
1490335946.665232, 1490335946.667654, -0.791382, +1.782898, +0.417664, +35.385132, -38.146973, +121.765137
1490335946.667928, 1490335946.670341, -0.791382, +1.782898, +0.417664, +36.926270, -37.200928, +129.913330
1490335946.670614, 1490335946.673024, -0.791382, +1.782898, +0.698914, +36.926270, -37.200928, +129.913330
1490335946.673298, 1490335946.675715, -0.897400, +1.788025, +0.658630, +36.926270, -37.139893, +138.824463
1490335946.675989, 1490335946.678390, -0.897400, +1.788025, +0.658630, +38.040161, -37.139893, +138.824463
1490335946.678659, 1490335946.680947, -0.897400, +1.788025, +0.658630, +38.040161, -37.139893, +148.895264
1490335946.681321, 1490335946.683614, -0.991150, +1.736755, +0.843933, +35.598755, -38.131714, +148.895264
1490335946.683880, 1490335946.686165, -1.016052, +1.736755, +0.843933, +35.598755, -38.131714, +156.951904
1490335946.686430, 1490335946.688753, -1.016052, +1.736755, +0.843933, +34.255981, -39.993286, +156.951904
1490335946.689018, 1490335946.691302, -1.016052, +1.736755, +0.843933, +34.255981, -39.993286, +156.951904
1490335946.691567, 1490335946.693849, -0.955627, +1.796448, +0.845215, +31.967163, -41.671753, +165.573120
1490335946.694115, 1490335946.696403, -0.955627, +1.796448, +0.845215, +31.967163, -41.671753, +165.573120
1490335946.696668, 1490335946.699082, -0.955627, +1.796448, +0.845215, +28.640747, -46.981812, +173.171997
1490335946.699357, 1490335946.701772, -0.955627, +1.796448, +0.845215, +28.640747, -46.981812, +173.171997
1490335946.702045, 1490335946.704456, -0.721802, +1.900269, +0.811890, +26.779175, -51.788330, +181.869507
1490335946.704732, 1490335946.707150, -0.721802, +1.900269, +0.811890, +26.779175, -51.788330, +181.869507
1490335946.707424, 1490335946.709840, -0.721802, +1.900269, +0.811890, +22.979736, -58.914185, +191.833496
1490335946.710113, 1490335946.712524, -0.721802, +2.087769, +0.622009, +22.979736, -58.914185, +191.833496
1490335946.712797, 1490335946.715210, -0.211304, +2.096375, +0.622009, +23.010254, -64.819336, +203.094482
1490335946.715485, 1490335946.717909, -0.211304, +2.096375, +0.622009, +23.010254, -64.819336, +203.094482
1490335946.718184, 1490335946.720595, -0.211304, +2.096375, +0.622009, +26.306152, -61.630249, +217.514038
1490335946.720869, 1490335946.723284, +0.332886, +2.381653, +0.229797, +26.306152, -61.630249, +217.514038
1490335946.723557, 1490335946.725971, +0.332886, +2.381653, +0.229797, +24.795532, -61.447144, +223.617554
1490335946.726244, 1490335946.728586, +0.332886, +2.381653, +0.229797, +24.795532, -61.447144, +223.617554
1490335946.728853, 1490335946.731137, +0.332886, +2.381653, +0.229797, +24.795532, -81.832886, +219.055176
1490335946.731402, 1490335946.733689, -0.074341, +2.328369, +0.130188, +24.032593, -81.832886, +219.055176
1490335946.733956, 1490335946.736244, -0.074341, +2.328369, +0.130188, +24.032593, -105.270386, +206.802368
1490335946.736512, 1490335946.738919, -0.074341, +2.328369, +0.130188, +22.888184, -105.377197, +206.802368
1490335946.739194, 1490335946.741607, -0.074341, +2.234619, +0.441284, +22.888184, -105.377197, +192.794800
1490335946.741882, 1490335946.744293, -0.470947, +2.206238, +0.441284, +21.926880, -107.925415, +192.794800
1490335946.744567, 1490335946.746973, -0.470947, +2.206238, +0.441284, +21.926880, -107.925415, +177.169800
1490335946.747301, 1490335946.749712, -0.470947, +2.206238, +0.441284, +22.018433, -96.191406, +179.077148
1490335946.749987, 1490335946.752397, -0.582458, +2.223267, +0.450989, +22.018433, -96.191406, +167.358398
1490335946.752671, 1490335946.755083, -0.582458, +2.223267, +0.450989, +26.336670, -79.116821, +167.282104
1490335946.755357, 1490335946.757770, -0.582458, +2.223267, +0.450989, +26.336670, -79.116821, +167.282104
1490335946.758044, 1490335946.760452, -0.582458, +2.223267, +0.450989, +28.228760, -63.644409, +164.535522
1490335946.760725, 1490335946.763140, -0.310913, +1.941833, +0.411621, +28.228760, -63.644409, +164.535522
1490335946.763415, 1490335946.765827, -0.310913, +1.941833, +0.411621, +25.436401, -62.866211, +165.145874
1490335946.766102, 1490335946.768522, -0.310913, +1.941833, +0.411621, +25.436401, -62.866211, +165.145874
1490335946.768796, 1490335946.771208, -0.310913, +1.707092, +0.348267, +14.068604, -67.428589, +163.726807
1490335946.771482, 1490335946.773896, -0.442749, +1.707092, +0.348267, +14.068604, -67.428589, +163.726807
1490335946.774170, 1490335946.776580, -0.442749, +1.707092, +0.348267, +4.486084, -65.002441, +154.022217
1490335946.776852, 1490335946.779159, -0.442749, +1.707092, +0.348267, +4.486084, -65.002441, +154.022217
1490335946.779423, 1490335946.781708, -1.280457, +1.315979, +0.063538, +2.029419, -55.465698, +132.965088
1490335946.782077, 1490335946.784368, -1.280457, +1.315979, +0.063538, +2.029419, -55.465698, +132.965088
1490335946.784630, 1490335946.786922, -1.280457, +1.315979, +0.063538, +0.747681, -42.709351, +111.221313
1490335946.787250, 1490335946.789658, -1.280457, +1.315979, +0.063538, +0.747681, -42.709351, +111.221313
1490335946.789930, 1490335946.792338, -1.800842, +0.660095, -0.004578, +1.724243, -20.172119, +85.266113
1490335946.792611, 1490335946.795028, -1.800842, +0.660095, -0.004578, +1.724243, -20.172119, +85.266113
1490335946.795303, 1490335946.797730, -1.800842, +0.660095, -0.004578, +5.630493, -3.219604, +66.833496
1490335946.798001, 1490335946.800413, -1.800842, +0.025085, +0.025635, +5.767822, -3.219604, +66.833496
1490335946.800680, 1490335946.803094, -0.641785, +0.025085, +0.025635, +5.767822, +11.001587, +58.731079
1490335946.803366, 1490335946.805777, -0.641785, +0.025085, +0.025635, -3.967285, +11.001587, +58.731079
1490335946.806049, 1490335946.808470, -0.641785, +0.025085, +0.025635, -3.967285, +18.814087, +49.591064
1490335946.808743, 1490335946.811155, -0.590698, +0.342957, +0.141907, -22.354126, +17.333984, +49.591064
1490335946.811429, 1490335946.813841, -0.590698, +0.342957, +0.141907, -22.354126, +17.333984, +29.602051
1490335946.814114, 1490335946.816535, -0.590698, +0.342957, +0.141907, -25.711060, +8.148193, +29.602051
1490335946.816806, 1490335946.819114, -0.590698, +0.342957, +0.086060, -25.711060, +8.148193, -0.808716
1490335946.819378, 1490335946.821661, -1.406982, +0.337463, +0.086060, -16.113281, +5.310059, -0.808716
1490335946.821924, 1490335946.824207, -1.406982, +0.337463, +0.086060, -16.113281, +5.310059, -0.808716
1490335946.824469, 1490335946.826752, -1.406982, +0.337463, +0.086060, -13.534546, +6.210327, -31.173706
1490335946.827058, 1490335946.829340, -1.406982, +0.106018, +0.042847, -13.534546, +6.210327, -31.173706
1490335946.829604, 1490335946.831884, -1.659302, +0.106018, +0.042847, -16.174316, +5.310059, -60.333252
1490335946.832150, 1490335946.834432, -1.659302, +0.106018, +0.042847, -16.174316, +5.310059, -60.333252
1490335946.834695, 1490335946.836979, -1.659302, +0.106018, +0.042847, -17.272949, +6.744385, -82.962036
1490335946.837302, 1490335946.839707, -1.523438, +0.094116, -0.032593, -17.272949, +6.744385, -82.962036
1490335946.839980, 1490335946.842392, -1.523438, +0.094116, -0.032593, -17.791748, +11.947632, -100.021362
1490335946.842666, 1490335946.845077, -1.523438, +0.094116, -0.032593, -17.791748, +11.947632, -100.021362
1490335946.845351, 1490335946.847765, -1.523438, +0.094116, -0.032593, -16.937256, +23.498535, -115.036011
1490335946.848040, 1490335946.850452, -1.231201, +0.178345, -0.112793, -16.937256, +23.498535, -115.036011
1490335946.850728, 1490335946.853136, -1.231201, +0.178345, -0.112793, -16.937256, +33.279419, -126.525879
1490335946.853411, 1490335946.855816, -1.231201, +0.178345, -0.112793, -17.120361, +33.279419, -126.525879
1490335946.856092, 1490335946.858514, -1.231201, +0.318970, -0.060059, -17.120361, +40.206909, -137.908936
1490335946.858788, 1490335946.861195, -0.828552, +0.313293, -0.060059, -17.974854, +40.206909, -137.908936
1490335946.861469, 1490335946.863876, -0.828552, +0.313293, -0.060059, -17.974854, +48.019409, -149.459839
1490335946.864151, 1490335946.866562, -0.828552, +0.313293, -0.060059, -19.058228, +47.195435, -149.459839
1490335946.866838, 1490335946.869148, -0.616516, +0.473511, +0.029114, -19.058228, +47.195435, -162.979126
1490335946.869416, 1490335946.871701, -0.616516, +0.473511, +0.029114, -20.660400, +51.513672, -162.979126
1490335946.871969, 1490335946.874260, -0.616516, +0.473511, +0.029114, -20.660400, +51.513672, -162.979126
1490335946.874528, 1490335946.876816, -0.616516, +0.473511, +0.029114, -19.088745, +51.879883, -180.252075
1490335946.877057, 1490335946.879460, -0.673462, +0.539612, +0.016479, -19.088745, +51.879883, -180.252075
1490335946.879734, 1490335946.882146, -0.673462, +0.539612, +0.016479, -16.952515, +49.987793, -194.076538
1490335946.882420, 1490335946.884832, -0.673462, +0.539612, +0.016479, -16.952515, +49.987793, -194.076538
1490335946.885214, 1490335946.887630, -0.673462, +0.586487, -0.072876, -15.747070, +45.425415, -208.236694
1490335946.887905, 1490335946.890312, -0.733704, +0.596924, -0.072876, -15.747070, +45.425415, -208.236694
1490335946.890586, 1490335946.893001, -0.733704, +0.596924, -0.072876, -14.755249, +42.068481, -222.930908
1490335946.893276, 1490335946.895684, -0.733704, +0.596924, -0.072876, -14.755249, +42.068481, -222.930908
1490335946.895958, 1490335946.898372, -0.805481, +0.741943, -0.133118, -15.151978, +39.764404, -236.099243
1490335946.898646, 1490335946.901057, -0.805481, +0.741943, -0.133118, -15.151978, +39.764404, -236.099243
1490335946.901332, 1490335946.903739, -0.805481, +0.741943, -0.133118, -13.290405, +33.660889, -250.473022
1490335946.904013, 1490335946.906425, -0.805481, +0.741943, -0.133118, -13.290405, +33.660889, -250.473022
1490335946.906698, 1490335946.909016, -0.810974, +0.830750, -0.179443, -12.420654, +28.030396, -261.230469
1490335946.909284, 1490335946.911572, -0.810974, +0.830750, -0.179443, -12.420654, +28.030396, -261.230469
1490335946.911840, 1490335946.914126, -0.810974, +0.830750, -0.179443, -12.420654, +22.781372, -270.950317
1490335946.914392, 1490335946.916673, -0.810974, +0.830750, -0.190613, -12.435913, +22.781372, -270.950317
1490335946.916940, 1490335946.919354, -0.777466, +0.964050, -0.190613, -12.435913, +22.781372, -277.282715
1490335946.919631, 1490335946.922044, -0.777466, +0.964050, -0.190613, -12.420654, +20.629883, -277.282715
1490335946.922319, 1490335946.924725, -0.777466, +0.964050, -0.190613, -12.420654, +20.629883, -282.440186
1490335946.924998, 1490335946.927448, -0.687561, +1.079773, -0.164795, -13.504028, +18.630981, -282.440186
1490335946.927723, 1490335946.930136, -0.687561, +1.079773, -0.164795, -13.504028, +18.630981, -287.582397
1490335946.930410, 1490335946.932822, -0.687561, +1.079773, -0.164795, -13.305664, +18.844604, -287.582397
1490335946.933096, 1490335946.935509, -0.687561, +1.079773, -0.164795, -13.305664, +18.844604, -291.488647
1490335946.935782, 1490335946.938260, -0.624390, +1.154297, -0.112976, -14.907837, +20.111084, -292.037964
1490335946.938534, 1490335946.940947, -0.624390, +1.154297, -0.112976, -14.907837, +20.111084, -299.850464
1490335946.941221, 1490335946.943630, -0.624390, +1.154297, -0.112976, -15.213013, +21.163940, -297.454834
1490335946.943905, 1490335946.946316, -0.624390, +1.198608, -0.093750, -15.213013, +21.163940, -297.454834
1490335946.946594, 1490335946.949073, -0.526794, +1.198608, -0.093750, -16.357422, +22.079468, -301.727295
1490335946.949347, 1490335946.951760, -0.526794, +1.198608, -0.093750, -16.357422, +22.079468, -301.727295
1490335946.952034, 1490335946.954444, -0.526794, +1.198608, -0.093750, -17.333984, +25.497437, -308.319092
1490335946.954717, 1490335946.957138, -0.523499, +1.276794, -0.083313, -17.333984, +25.497437, -308.319092
1490335946.957404, 1490335946.959695, -0.523499, +1.276794, -0.083313, -18.905640, +30.838013, -314.056396
1490335946.959962, 1490335946.962251, -0.523499, +1.276794, -0.083313, -18.905640, +30.838013, -314.056396
1490335946.962518, 1490335946.964803, -0.523499, +1.276794, -0.083313, -18.463135, +34.393311, -322.143555
1490335946.965072, 1490335946.967426, -0.494934, +1.429504, -0.101807, -18.463135, +34.393311, -322.143555
1490335946.967701, 1490335946.970100, -0.494934, +1.429504, -0.101807, -18.768311, +37.078857, -327.255249
1490335946.970375, 1490335946.972770, -0.494934, +1.429504, -0.101807, -18.768311, +37.078857, -327.255249
1490335946.973044, 1490335946.975442, -0.494934, +1.579651, -0.109314, -18.722534, +38.269043, -332.305908
1490335946.975716, 1490335946.978111, -0.486328, +1.579651, -0.109314, -18.722534, +38.269043, -332.305908
1490335946.978383, 1490335946.980758, -0.486328, +1.579651, -0.109314, -18.859863, +39.352417, -336.975098
1490335946.981031, 1490335946.983405, -0.486328, +1.579651, -0.109314, -18.859863, +39.352417, -336.975098
1490335946.983677, 1490335946.986055, -0.512512, +1.710388, -0.102905, -18.859863, +41.259766, -342.346191
1490335946.986436, 1490335946.988871, -0.512512, +1.710388, -0.102905, -19.882202, +41.259766, -342.346191
1490335946.989145, 1490335946.991559, -0.512512, +1.710388, -0.102905, -19.882202, +46.096802, -345.809937
1490335946.991834, 1490335946.994241, -0.512512, +1.710388, -0.009155, -21.560669, +46.096802, -345.809937
1490335946.994516, 1490335946.996923, -0.556091, +1.880859, -0.038818, -21.560669, +53.909302, -349.838257
1490335946.997305, 1490335946.999723, -0.556091, +1.880859, -0.038818, -24.246216, +52.490234, -349.838257
1490335946.999997, 1490335947.002409, -0.556091, +1.880859, -0.038818, -24.246216, +60.302734, -352.752686
1490335947.002684, 1490335947.005093, -0.556091, +2.092163, +0.029663, -26.031494, +61.538696, -352.752686
1490335947.005366, 1490335947.007784, -0.534119, +2.092163, +0.029663, -26.031494, +61.538696, -355.484009
1490335947.008052, 1490335947.010341, -0.534119, +2.092163, +0.029663, -29.891968, +71.578979, -355.484009
1490335947.010609, 1490335947.012889, -0.534119, +2.092163, +0.029663, -29.891968, +71.578979, -355.484009
1490335947.013156, 1490335947.015444, -0.391296, +2.404907, +0.080933, -31.082153, +78.994751, -357.086182
1490335947.015711, 1490335947.018076, -0.391296, +2.404907, +0.080933, -31.082153, +78.994751, -357.086182
1490335947.018350, 1490335947.020763, -0.391296, +2.404907, +0.080933, -30.471802, +83.374023, -356.307983
1490335947.021038, 1490335947.023447, -0.391296, +2.404907, +0.174683, -30.471802, +83.374023, -356.307983
1490335947.023720, 1490335947.026131, -0.051270, +2.721313, +0.174866, -28.594971, +87.554932, -355.575562
1490335947.026405, 1490335947.028826, -0.051270, +2.721313, +0.174866, -28.594971, +87.554932, -355.575562
1490335947.029101, 1490335947.031508, -0.051270, +2.721313, +0.174866, -26.931763, +99.319458, -347.457886
1490335947.031783, 1490335947.034189, +0.604980, +2.992310, +0.465637, -26.931763, +99.319458, -347.457886
1490335947.034463, 1490335947.036868, +0.578430, +2.992310, +0.465637, -24.826050, +117.706299, -337.036133
1490335947.037153, 1490335947.039570, +0.578430, +2.992310, +0.465637, -24.826050, +117.706299, -337.036133
1490335947.039843, 1490335947.042258, +0.578430, +2.992310, +0.465637, -20.248413, +137.115479, -323.684692
1490335947.042533, 1490335947.044940, +1.152649, +3.189880, +0.660095, -20.248413, +137.115479, -323.684692
1490335947.045214, 1490335947.047634, +1.152649, +3.189880, +0.660095, -16.830444, +153.350830, -308.654785
1490335947.047907, 1490335947.050316, +1.152649, +3.189880, +0.660095, -16.830444, +153.350830, -308.654785
1490335947.050589, 1490335947.052998, +1.152649, +3.189880, +0.740845, -11.947632, +168.258667, -293.197632
1490335947.053271, 1490335947.055680, +1.509705, +3.366577, +0.740845, -11.947632, +168.258667, -293.197632
1490335947.055952, 1490335947.058318, +1.509705, +3.366577, +0.740845, -6.958008, +180.007935, -279.129028
1490335947.058582, 1490335947.060865, +1.509705, +3.366577, +0.740845, -6.958008, +180.007935, -279.129028
1490335947.061129, 1490335947.063418, +1.814392, +3.359253, +0.621277, -6.958008, +183.914185, -263.565063
1490335947.063680, 1490335947.065967, +1.814392, +3.359253, +0.621277, -1.266479, +187.301636, -263.565063
1490335947.066230, 1490335947.068571, +1.814392, +3.359253, +0.621277, -1.266479, +187.301636, -248.260498
1490335947.068835, 1490335947.071118, +1.814392, +3.359253, +0.621277, +0.701904, +189.651489, -248.260498
1490335947.071381, 1490335947.073667, +2.138855, +2.849487, +0.525330, +0.701904, +189.651489, -248.260498
1490335947.073929, 1490335947.076210, +2.138855, +2.849487, +0.525330, -0.900269, +182.739258, -236.572266
1490335947.076473, 1490335947.078879, +2.138855, +2.849487, +0.525330, -0.900269, +182.739258, -236.572266
1490335947.079150, 1490335947.081560, +2.138855, +2.849487, +0.525330, -3.173828, +169.876099, -225.082397
1490335947.081832, 1490335947.084251, +2.678101, +1.940369, +0.962402, -3.173828, +169.876099, -225.082397
1490335947.084521, 1490335947.086925, +2.678101, +1.940369, +0.962402, -2.471924, +149.688721, -207.351685
1490335947.087244, 1490335947.089657, +2.678101, +1.940369, +0.962402, -2.471924, +149.688721, -207.351685
1490335947.090033, 1490335947.092447, +2.678101, +1.577454, +1.267639, -3.662109, +116.470337, -180.908203
1490335947.092716, 1490335947.095122, +3.541809, +1.577454, +1.267639, -3.662109, +116.470337, -180.908203
1490335947.095390, 1490335947.097843, +3.541809, +1.577454, +1.267639, -1.754761, +71.090698, -147.384644
1490335947.098112, 1490335947.100525, +3.541809, +1.577454, +1.267639, -1.754761, +71.090698, -147.384644
1490335947.100793, 1490335947.103205, +4.146057, +1.601807, +1.166382, +4.959106, +31.936646, -111.770630
1490335947.103473, 1490335947.105885, +4.146057, +1.601807, +1.166382, +4.959106, +31.936646, -111.770630
1490335947.106152, 1490335947.108482, +4.146057, +1.601807, +1.166382, +10.711670, +2.746582, -75.927734
1490335947.108743, 1490335947.111030, +4.146057, +1.601807, +0.744507, +10.711670, +2.746582, -75.927734
1490335947.111293, 1490335947.113584, +4.350586, +1.549072, +0.723999, +18.524170, -29.098511, -33.889771
1490335947.113850, 1490335947.116142, +4.350586, +1.549072, +0.723999, +16.830444, -29.098511, -33.889771
1490335947.116409, 1490335947.118834, +4.350586, +1.549072, +0.723999, +16.830444, -72.067261, +14.038086
1490335947.119108, 1490335947.121516, +4.350586, +1.493408, +0.632446, +23.208618, -71.624756, +14.038086
1490335947.121789, 1490335947.124195, +3.757690, +1.493408, +0.632446, +23.208618, -71.624756, +56.869507
1490335947.124467, 1490335947.126873, +3.757690, +1.493408, +0.632446, +27.557373, -103.591919, +56.869507
1490335947.127156, 1490335947.129564, +3.757690, +1.493408, +0.632446, +27.557373, -103.591919, +94.085693
1490335947.129836, 1490335947.132251, +2.878784, +1.491760, +1.094604, +29.495239, -117.462158, +94.085693
1490335947.132523, 1490335947.134938, +2.878784, +1.491760, +1.094604, +29.495239, -117.462158, +125.335693
1490335947.135208, 1490335947.137631, +2.878784, +1.491760, +1.094604, +21.881104, -122.863770, +125.122070
1490335947.137902, 1490335947.140314, +2.878784, +1.491760, +1.094604, +21.881104, -122.863770, +125.122070
1490335947.140585, 1490335947.142994, +1.465393, +2.093445, +1.087463, +18.829346, -98.388672, +152.053833
1490335947.143264, 1490335947.145675, +1.465393, +2.093445, +1.087463, +18.829346, -98.388672, +152.053833
1490335947.145945, 1490335947.148289, +1.465393, +2.093445, +1.087463, +27.420044, -39.688110, +161.788940
1490335947.148553, 1490335947.150839, +1.465393, +1.770996, +0.566895, +27.420044, -39.688110, +161.788940
1490335947.151105, 1490335947.153385, -0.748169, +1.770996, +0.566895, +19.561768, +12.329102, +148.178101
1490335947.153653, 1490335947.155940, -0.748169, +1.770996, +0.566895, +19.561768, +12.329102, +148.178101
1490335947.156206, 1490335947.158574, -0.748169, +1.770996, +0.566895, +25.833130, +74.539185, +105.407715
1490335947.158848, 1490335947.161262, -5.598450, +1.969299, -1.954285, +25.833130, +74.539185, +105.407715
1490335947.161534, 1490335947.163945, -5.598450, +1.969299, -1.954285, +55.435181, -9.475708, +93.765259
1490335947.164213, 1490335947.167257, -5.598450, +1.969299, -1.954285, +55.435181, -9.475708, +93.765259
1490335947.167522, 1490335947.169808, -5.598450, +1.969299, -2.176575, +59.188843, -91.110229, +121.734619
1490335947.170072, 1490335947.172351, -2.419373, +0.964233, -2.176575, +59.188843, -91.110229, +121.734619
1490335947.172617, 1490335947.174896, -2.419373, +0.964233, -2.176575, -11.215210, +71.990967, +156.707764
1490335947.175162, 1490335947.177513, -2.419373, +0.964233, -2.176575, -11.215210, +71.990967, +156.707764
1490335947.177779, 1490335947.180062, +2.361877, +1.485168, +0.782410, -65.902710, +189.941406, +190.246582
1490335947.180327, 1490335947.182605, +2.381104, +1.485168, +0.782410, -64.498901, +189.941406, +190.246582
1490335947.182871, 1490335947.185154, +2.381104, +1.485168, +0.782410, -64.498901, +189.941406, +192.474365
1490335947.185421, 1490335947.187707, +2.381104, +1.485168, +0.782410, -61.325073, +193.527222, +192.474365
1490335947.187973, 1490335947.190250, +2.459106, +2.878601, +1.723022, -61.325073, +193.527222, +192.474365
1490335947.190623, 1490335947.192903, +2.459106, +2.878601, +1.723022, -51.727295, +210.113525, +182.037354
1490335947.193166, 1490335947.195445, +2.459106, +2.878601, +1.723022, -51.727295, +210.113525, +182.037354
1490335947.195708, 1490335947.198020, +2.459106, +2.878601, +1.723022, -15.625000, +127.777100, +171.768188
1490335947.198284, 1490335947.200569, +0.885681, +2.331482, -1.048279, -15.625000, +127.777100, +171.768188
1490335947.200837, 1490335947.203115, +0.885681, +2.331482, -1.048279, +14.572144, -9.490967, +151.596069
1490335947.203379, 1490335947.205658, +0.885681, +2.331482, -1.048279, +14.572144, -9.490967, +151.596069
1490335947.205922, 1490335947.208294, +0.885681, +2.331482, -1.048279, -0.534058, -54.641724, +144.393921
1490335947.208564, 1490335947.210977, +0.630981, +0.447876, +0.091187, -0.534058, -54.641724, +144.393921
1490335947.211250, 1490335947.213662, +0.630981, +0.447876, +0.091187, -32.928467, -53.894043, +136.001587
1490335947.213937, 1490335947.216349, +0.630981, +0.447876, +0.091187, -32.928467, -53.894043, +136.001587
1490335947.216624, 1490335947.219042, +0.630981, +0.513062, +1.507874, -52.459717, -38.589478, +119.216919
1490335947.219316, 1490335947.221730, -0.370056, +0.513062, +1.507874, -51.849365, -38.589478, +119.216919
1490335947.222005, 1490335947.224410, -0.370056, +0.513062, +1.507874, -51.849365, -13.504028, +108.825684
1490335947.224683, 1490335947.227107, -0.370056, +0.513062, +1.507874, -65.841675, -13.504028, +108.825684
1490335947.227383, 1490335947.229792, +0.078186, +1.386108, +1.186890, -65.841675, +6.027222, +114.074707
1490335947.230064, 1490335947.232481, +0.078186, +1.386108, +1.186890, -59.280396, +7.400513, +114.074707
1490335947.232752, 1490335947.235164, +0.078186, +1.386108, +1.186890, -59.280396, +7.400513, +124.114990
1490335947.235435, 1490335947.237857, +0.078186, +1.386108, +0.095581, -23.483276, +16.433716, +124.114990
1490335947.238132, 1490335947.240548, +0.439453, +2.003906, +0.095581, -23.483276, +16.433716, +116.271973
1490335947.240824, 1490335947.243232, +0.439453, +2.003906, +0.095581, +10.665894, +13.732910, +116.271973
1490335947.243507, 1490335947.245917, +0.439453, +2.003906, +0.095581, +10.665894, +13.732910, +100.646973
1490335947.246191, 1490335947.248564, +0.127625, +1.135437, +0.184021, +24.063110, -3.784180, +100.570679
1490335947.248829, 1490335947.251115, +0.127625, +1.135437, +0.184021, +24.063110, -3.784180, +100.570679
1490335947.251378, 1490335947.253666, +0.127625, +1.135437, +0.184021, +20.965576, -25.466919, +89.370728
1490335947.253932, 1490335947.256222, +0.127625, +1.135437, +0.184021, +20.965576, -25.466919, +89.370728
1490335947.256487, 1490335947.258864, -0.021606, +0.821960, +0.283264, +12.313843, -34.942627, +83.282471
1490335947.259140, 1490335947.261535, -0.021606, +0.821960, +0.283264, +12.313843, -34.942627, +83.282471
1490335947.261811, 1490335947.264207, -0.021606, +0.821960, +0.283264, +7.461548, -30.349731, +80.093384
1490335947.264479, 1490335947.266875, -0.021606, +0.821960, +0.142639, +7.461548, -30.349731, +80.093384
1490335947.267156, 1490335947.269554, -0.072693, +1.068970, +0.183289, +9.613037, -31.051636, +75.393677
1490335947.269825, 1490335947.272220, -0.072693, +1.068970, +0.183289, +9.613037, -31.051636, +75.393677
1490335947.272491, 1490335947.274891, -0.072693, +1.068970, +0.183289, +12.512207, -36.087036, +70.861816
1490335947.275164, 1490335947.277563, -0.213318, +1.012390, +0.163696, +12.512207, -36.087036, +70.861816
1490335947.277839, 1490335947.280239, -0.198669, +1.012390, +0.163696, +10.971069, -40.725708, +66.024780
1490335947.280513, 1490335947.282907, -0.198669, +1.012390, +0.163696, +10.971069, -40.725708, +66.024780
1490335947.283178, 1490335947.285577, -0.198669, +1.012390, +0.163696, +7.064819, -40.481567, +60.104370
1490335947.285847, 1490335947.288244, -0.346252, +0.910583, +0.022522, +7.522583, -40.481567, +60.104370
1490335947.288515, 1490335947.290960, -0.346252, +0.910583, +0.022522, +7.522583, -34.362793, +57.785034
1490335947.291356, 1490335947.293662, -0.346252, +0.910583, +0.022522, +6.591797, -34.362793, +57.785034
1490335947.293932, 1490335947.296216, -0.346252, +0.910583, -0.055481, +6.591797, -26.550293, +54.061890
1490335947.296481, 1490335947.298969, +0.000183, +0.957458, -0.055481, +3.860474, -24.963379, +54.061890
1490335947.299234, 1490335947.301516, +0.000183, +0.957458, -0.055481, +3.860474, -24.963379, +49.438477
1490335947.301780, 1490335947.304064, +0.000183, +0.957458, -0.055481, +1.785278, -17.318726, +49.438477
1490335947.304328, 1490335947.306611, -0.234192, +1.011658, +0.003479, +1.785278, -17.318726, +49.438477
1490335947.306875, 1490335947.309218, -0.199036, +1.011658, +0.003479, -1.190186, -12.069702, +48.660278
1490335947.309483, 1490335947.311766, -0.199036, +1.011658, +0.003479, -1.190186, -12.069702, +48.660278
1490335947.312029, 1490335947.314312, -0.199036, +1.011658, +0.003479, -4.699707, -7.339478, +46.554565
1490335947.314573, 1490335947.316857, -0.309814, +1.048645, +0.108215, -4.699707, -7.339478, +46.554565
1490335947.317116, 1490335947.319397, -0.309814, +1.048645, +0.108215, -6.286621, -0.976562, +44.769287
1490335947.319658, 1490335947.321937, -0.309814, +1.048645, +0.108215, -6.286621, -0.976562, +44.769287
1490335947.322199, 1490335947.324480, -0.309814, +1.048645, +0.108215, -5.767822, +3.738403, +44.876099
1490335947.324742, 1490335947.327064, -0.174133, +1.103210, +0.177429, -5.767822, +3.738403, +44.876099
1490335947.327324, 1490335947.329607, -0.174133, +1.103210, +0.177429, -5.767822, +3.234863, +43.228149
1490335947.329867, 1490335947.332149, -0.174133, +1.103210, +0.177429, -3.616333, +3.234863, +43.228149
1490335947.332411, 1490335947.334688, -0.174133, +1.103210, +0.177429, -3.616333, +3.234863, +41.381836
1490335947.334949, 1490335947.337285, -0.213501, +0.998840, +0.198120, -2.182007, +3.387451, +41.381836
1490335947.337554, 1490335947.339962, -0.213501, +0.998840, +0.198120, -2.182007, +3.387451, +41.381836
1490335947.340231, 1490335947.342643, -0.213501, +0.998840, +0.198120, -2.899170, +0.030518, +40.435791
1490335947.342912, 1490335947.345317, -0.213501, +0.951965, +0.258362, -2.899170, +0.030518, +40.435791
1490335947.345587, 1490335947.348006, -0.181274, +0.939697, +0.258362, -1.296997, -4.196167, +37.521362
1490335947.348269, 1490335947.350553, -0.181274, +0.939697, +0.258362, -1.296997, -4.196167, +37.521362
1490335947.350814, 1490335947.353102, -0.181274, +0.939697, +0.258362, +0.778198, -9.582520, +33.645630
1490335947.353364, 1490335947.355649, -0.066467, +0.916626, +0.282715, +0.778198, -9.582520, +33.645630
1490335947.355911, 1490335947.358282, -0.066467, +0.916626, +0.282715, +2.349854, -17.745972, +31.600952
1490335947.358555, 1490335947.360964, -0.066467, +0.916626, +0.282715, +2.349854, -17.745972, +31.600952
1490335947.361235, 1490335947.363645, -0.066467, +0.916626, +0.282715, +3.021240, -30.105591, +28.411865
1490335947.363916, 1490335947.366322, -0.024536, +0.964050, +0.253967, +3.021240, -30.105591, +28.411865
1490335947.366594, 1490335947.369044, -0.024536, +0.964050, +0.253967, +5.157471, -41.015625, +24.795532
1490335947.369315, 1490335947.371724, -0.024536, +0.964050, +0.253967, +5.157471, -41.015625, +24.795532
1490335947.371996, 1490335947.374410, -0.024536, +1.010925, +0.195557, +6.622314, -47.637939, +24.932861
1490335947.374681, 1490335947.377101, -0.109497, +1.014771, +0.195557, +6.622314, -47.637939, +24.932861
1490335947.377372, 1490335947.379782, -0.109497, +1.014771, +0.195557, +6.622314, -51.528931, +26.046753
1490335947.380053, 1490335947.382466, -0.109497, +1.014771, +0.195557, +5.874634, -51.528931, +26.046753
1490335947.382738, 1490335947.385149, -0.194641, +1.054321, +0.115906, +5.874634, -53.054810, +25.863647
1490335947.385421, 1490335947.387848, -0.194641, +1.054321, +0.115906, +5.538940, -53.054810, +25.863647
1490335947.388119, 1490335947.390530, -0.194641, +1.054321, +0.115906, +5.538940, -53.054810, +28.778076
1490335947.390802, 1490335947.393217, -0.194641, +1.054321, +0.115906, +4.272461, -51.956177, +28.778076
1490335947.393488, 1490335947.395905, -0.270813, +1.050110, +0.084961, +4.272461, -51.956177, +30.838013
1490335947.396285, 1490335947.398626, -0.270813, +1.050110, +0.084961, +2.563477, -51.101685, +30.838013
1490335947.398892, 1490335947.401181, -0.270813, +1.050110, +0.084961, +2.563477, -51.101685, +34.744263
1490335947.401445, 1490335947.403733, -0.270813, +1.030884, +0.110779, +2.456665, -48.629761, +33.950806
1490335947.403997, 1490335947.406285, -0.278320, +1.030884, +0.110779, +2.456665, -48.629761, +33.950806
1490335947.406549, 1490335947.408918, -0.278320, +1.030884, +0.110779, +1.419067, -45.913696, +38.208008
1490335947.409189, 1490335947.411566, -0.278320, +1.030884, +0.110779, +1.419067, -45.913696, +38.208008
1490335947.411836, 1490335947.414214, -0.169189, +1.022461, +0.145020, +1.251221, -43.197632, +41.030884
1490335947.414483, 1490335947.416908, -0.169189, +1.022461, +0.145020, +1.251221, -43.197632, +41.030884
1490335947.417181, 1490335947.419598, -0.169189, +1.022461, +0.145020, -0.289917, -42.175293, +43.609619
1490335947.419870, 1490335947.422277, -0.169189, +1.022461, +0.145020, -0.289917, -42.175293, +43.609619
1490335947.422547, 1490335947.424959, -0.128174, +1.027039, +0.121948, -0.671387, -42.785645, +46.020508
1490335947.425231, 1490335947.427654, -0.128174, +1.027039, +0.121948, -0.671387, -42.785645, +46.020508
1490335947.427926, 1490335947.430338, -0.128174, +1.027039, +0.121948, -2.014160, -45.196533, +48.858643
1490335947.430611, 1490335947.433024, -0.128174, +1.059998, +0.162415, -2.014160, -45.196533, +48.858643
1490335947.433296, 1490335947.435708, -0.120117, +1.059998, +0.162415, -1.083374, -47.210693, +52.368164
1490335947.435979, 1490335947.438450, -0.120117, +1.059998, +0.162415, -1.083374, -47.210693, +52.368164
1490335947.438723, 1490335947.441136, -0.120117, +1.059998, +0.162415, -0.030518, -48.370361, +55.786133
1490335947.441408, 1490335947.443821, -0.110413, +1.046814, +0.232361, -0.030518, -48.370361, +55.786133
1490335947.444094, 1490335947.446500, -0.110413, +1.046814, +0.232361, +1.220703, -49.362183, +58.074951
1490335947.446773, 1490335947.449123, -0.110413, +1.046814, +0.232361, +1.220703, -49.362183, +58.074951
1490335947.449388, 1490335947.451676, -0.110413, +1.046814, +0.232361, +1.220703, -49.591064, +61.782837
1490335947.451940, 1490335947.454227, -0.154541, +1.041687, +0.285278, +0.305176, -49.591064, +61.782837
1490335947.454491, 1490335947.456782, -0.154541, +1.041687, +0.285278, +0.305176, -49.591064, +64.849854
1490335947.457056, 1490335947.459469, -0.154541, +1.041687, +0.285278, +1.129150, -50.430298, +64.849854
1490335947.459739, 1490335947.462150, -0.154541, +1.041687, +0.333435, +1.129150, -50.430298, +68.756104
1490335947.462421, 1490335947.464827, -0.180542, +1.055420, +0.333435, +2.258301, -50.704956, +68.481445
1490335947.465098, 1490335947.467520, -0.180542, +1.055420, +0.333435, +2.258301, -50.704956, +68.481445
1490335947.467792, 1490335947.470196, -0.180542, +1.055420, +0.333435, +3.189087, -49.652100, +69.656372
1490335947.470467, 1490335947.472877, -0.178711, +1.163635, +0.287109, +3.189087, -49.652100, +69.656372
1490335947.473148, 1490335947.475562, -0.178711, +1.163635, +0.287109, +4.806519, -48.721313, +71.594238
1490335947.475832, 1490335947.478260, -0.178711, +1.163635, +0.287109, +4.806519, -48.721313, +71.594238
1490335947.478531, 1490335947.480944, -0.178711, +1.163635, +0.287109, +7.186890, -49.301147, +71.304321
1490335947.481217, 1490335947.483627, -0.060791, +1.263428, +0.231445, +7.186890, -49.301147, +71.304321
1490335947.483901, 1490335947.486314, -0.060791, +1.263428, +0.231445, +8.132935, -51.986694, +72.448730
1490335947.486584, 1490335947.488937, -0.060791, +1.263428, +0.231445, +8.132935, -51.986694, +72.448730
1490335947.489201, 1490335947.491488, -0.060791, +1.350952, +0.235840, +7.339478, -55.770874, +73.394775
1490335947.491750, 1490335947.494044, -0.002747, +1.350952, +0.235840, +7.339478, -55.770874, +73.394775
1490335947.494309, 1490335947.496600, -0.002747, +1.350952, +0.235840, +8.193970, -59.478760, +75.195312
1490335947.496865, 1490335947.499277, -0.002747, +1.350952, +0.235840, +8.193970, -59.478760, +75.195312
1490335947.499660, 1490335947.502075, -0.085876, +1.408630, +0.134583, +8.331299, -63.354492, +78.674316
1490335947.502347, 1490335947.504759, -0.085876, +1.408630, +0.134583, +8.331299, -63.354492, +78.674316
1490335947.505031, 1490335947.507448, -0.085876, +1.408630, +0.134583, +9.353638, -63.949585, +82.412720
1490335947.507720, 1490335947.510126, -0.085876, +1.408630, +0.134583, +9.353638, -63.949585, +82.412720
1490335947.510399, 1490335947.512805, -0.237488, +1.350220, +0.057495, +9.353638, -63.690186, +86.669922
1490335947.513079, 1490335947.515489, -0.237488, +1.350220, +0.057495, +9.338379, -63.690186, +86.669922
1490335947.515761, 1490335947.518171, -0.237488, +1.350220, +0.057495, +9.338379, -60.379028, +91.049194
1490335947.518442, 1490335947.520855, -0.237488, +1.352783, +0.093750, +10.360718, -60.379028, +91.049194
1490335947.521130, 1490335947.523539, -0.349915, +1.352783, +0.093750, +10.360718, -56.472778, +96.557617
1490335947.523813, 1490335947.526227, -0.349915, +1.352783, +0.093750, +10.894775, -55.572510, +96.557617
1490335947.526501, 1490335947.528927, -0.349915, +1.352783, +0.093750, +10.894775, -55.572510, +102.798462
1490335947.529204, 1490335947.531612, -0.357605, +1.453674, +0.175232, +12.359619, -49.911499, +102.798462
1490335947.531885, 1490335947.534290, -0.357605, +1.453674, +0.175232, +12.359619, -49.911499, +107.727051
1490335947.534562, 1490335947.536974, -0.357605, +1.453674, +0.175232, +14.236450, -46.554565, +107.727051
1490335947.537284, 1490335947.539574, -0.357605, +1.453674, +0.114075, +14.236450, -46.554565, +107.727051
1490335947.539840, 1490335947.542122, -0.239136, +1.625061, +0.114075, +17.745972, -45.120239, +111.846924
1490335947.542389, 1490335947.544674, -0.239136, +1.625061, +0.114075, +17.745972, -45.120239, +111.846924
1490335947.544940, 1490335947.547290, -0.239136, +1.625061, +0.114075, +18.447876, -47.103882, +118.286133
1490335947.547565, 1490335947.549976, -0.239136, +1.756348, +0.007507, +18.447876, -47.103882, +118.286133
1490335947.550251, 1490335947.552657, -0.228882, +1.756348, +0.007507, +20.568848, -50.094604, +123.672485
1490335947.552932, 1490335947.555347, -0.228882, +1.756348, +0.007507, +20.568848, -50.094604, +123.672485
1490335947.555622, 1490335947.558051, -0.228882, +1.756348, +0.007507, +21.362305, -51.940918, +130.340576
1490335947.558327, 1490335947.560741, -0.354309, +1.844971, -0.171936, +21.362305, -51.940918, +130.340576
1490335947.561015, 1490335947.563428, -0.354309, +1.844971, -0.171936, +23.513794, -51.742554, +135.894775
1490335947.563702, 1490335947.566112, -0.354309, +1.844971, -0.171936, +23.513794, -51.742554, +135.894775
1490335947.566386, 1490335947.568849, -0.354309, +1.844971, -0.182739, +25.161743, -48.889160, +143.264771
1490335947.569122, 1490335947.571530, -0.526794, +1.910706, -0.182739, +25.161743, -48.889160, +143.264771
1490335947.571803, 1490335947.574210, -0.526794, +1.910706, -0.182739, +27.343750, -44.189453, +148.040771
1490335947.574485, 1490335947.576896, -0.526794, +1.910706, -0.182739, +27.343750, -44.189453, +148.040771
1490335947.577170, 1490335947.579583, -0.673279, +1.943848, -0.057861, +29.373169, -37.597656, +153.900146
1490335947.579857, 1490335947.582271, -0.673279, +1.943848, -0.057861, +29.373169, -37.597656, +153.900146
1490335947.582545, 1490335947.584951, -0.673279, +1.943848, -0.057861, +33.279419, -32.821655, +157.608032
1490335947.585225, 1490335947.587628, -0.673279, +1.943848, -0.057861, +31.967163, -32.821655, +157.608032
1490335947.587894, 1490335947.590182, -0.753296, +1.908325, +0.175232, +31.967163, -29.296875, +162.536621
1490335947.590448, 1490335947.592733, -0.753296, +1.908325, +0.175232, +35.079956, -29.296875, +162.536621
1490335947.593000, 1490335947.595289, -0.753296, +1.908325, +0.175232, +35.079956, -29.296875, +166.519165
1490335947.595556, 1490335947.597900, -0.753296, +1.908325, +0.409607, +35.690308, -29.296875, +166.519165
1490335947.598177, 1490335947.600583, -0.838074, +1.807983, +0.391296, +35.690308, -29.296875, +170.425415
1490335947.600966, 1490335947.603376, -0.838074, +1.807983, +0.391296, +37.582397, -32.562256, +169.265747
1490335947.603648, 1490335947.606058, -0.838074, +1.807983, +0.391296, +37.582397, -32.562256, +169.265747
1490335947.606329, 1490335947.608744, -0.877075, +1.689880, +0.550232, +37.551880, -40.390015, +171.661377
1490335947.609017, 1490335947.611427, -0.877075, +1.689880, +0.550232, +37.551880, -40.390015, +171.661377
1490335947.611701, 1490335947.614110, -0.877075, +1.689880, +0.550232, +38.589478, -51.849365, +172.805786
1490335947.614383, 1490335947.616790, -0.877075, +1.689880, +0.550232, +38.589478, -51.849365, +172.805786
1490335947.617072, 1490335947.619484, -1.010559, +1.699036, +0.571655, +37.826538, -62.881470, +176.620483
1490335947.619758, 1490335947.622175, -1.010559, +1.699036, +0.571655, +37.826538, -62.881470, +176.620483
1490335947.622447, 1490335947.624863, -1.010559, +1.699036, +0.571655, +38.711548, -70.602417, +178.787231
1490335947.625137, 1490335947.627552, -1.010559, +1.886536, +0.776367, +38.711548, -70.602417, +178.787231
1490335947.627825, 1490335947.630241, -1.379517, +1.891663, +0.776367, +39.932251, -80.078125, +182.174683
1490335947.630514, 1490335947.632926, -1.379517, +1.891663, +0.776367, +39.932251, -80.078125, +182.174683
1490335947.633197, 1490335947.635609, -1.379517, +1.891663, +0.776367, +40.328979, -90.103149, +187.347412
1490335947.635882, 1490335947.638248, -1.348572, +2.006104, +1.027771, +40.328979, -90.103149, +187.347412
1490335947.638511, 1490335947.640802, -1.348572, +2.006104, +1.027771, +41.671753, -103.530884, +195.800781
1490335947.641067, 1490335947.643356, -1.348572, +2.006104, +1.027771, +41.671753, -103.530884, +195.800781
1490335947.643620, 1490335947.645904, -1.348572, +2.006104, +1.027771, +45.578003, -107.284546, +210.693359
1490335947.646168, 1490335947.648542, -0.559570, +2.281677, +0.587036, +45.745850, -107.284546, +210.693359
1490335947.648818, 1490335947.651228, -0.559570, +2.281677, +0.587036, +45.745850, -90.255737, +231.048584
1490335947.651503, 1490335947.653913, -0.559570, +2.281677, +0.587036, +49.148560, -90.255737, +231.048584
1490335947.654186, 1490335947.656595, -0.559570, +2.281677, +0.436157, +49.148560, -59.005737, +250.366211
1490335947.656870, 1490335947.659288, +0.066833, +2.533264, +0.436157, +46.096802, -61.096191, +250.366211
1490335947.659563, 1490335947.661974, +0.066833, +2.533264, +0.436157, +46.096802, -61.096191, +259.902954
1490335947.662249, 1490335947.664656, +0.066833, +2.533264, +0.436157, +34.606934, -44.418335, +259.902954
1490335947.664930, 1490335947.667346, -0.466370, +2.599915, +0.512329, +34.606934, -44.418335, +257.217407
1490335947.667620, 1490335947.670034, -0.466370, +2.599915, +0.512329, +26.000977, -38.619995, +257.217407
1490335947.670307, 1490335947.672719, -0.466370, +2.599915, +0.512329, +26.000977, -38.619995, +249.404907
1490335947.672993, 1490335947.675402, -0.466370, +2.599915, +0.512329, +25.009155, -43.746948, +249.801636
1490335947.675676, 1490335947.678109, -0.680969, +2.736328, +0.537231, +25.009155, -43.746948, +249.801636
1490335947.678382, 1490335947.680800, -0.680969, +2.736328, +0.537231, +34.561157, -52.719116, +234.939575
1490335947.681072, 1490335947.683484, -0.680969, +2.736328, +0.537231, +34.561157, -52.719116, +234.939575
1490335947.683756, 1490335947.686171, -0.680969, +2.314453, +0.804199, +38.101196, -49.057007, +216.735840
1490335947.686445, 1490335947.688779, -0.827820, +2.311157, +0.804199, +38.101196, -49.057007, +216.735840
1490335947.689046, 1490335947.691334, -0.827820, +2.311157, +0.804199, +34.317017, -35.110474, +198.638916
1490335947.691600, 1490335947.693888, -0.827820, +2.311157, +0.804199, +34.317017, -35.110474, +198.638916
1490335947.694155, 1490335947.696443, -0.912964, +2.140320, +0.729126, +27.542114, -52.917480, +189.392090
1490335947.696709, 1490335947.699004, -0.912964, +2.140320, +0.729126, +27.542114, -52.917480, +189.392090
1490335947.699268, 1490335947.701554, -0.912964, +2.140320, +0.729126, +26.260376, -77.651978, +190.078735
1490335947.701926, 1490335947.704215, -0.912964, +2.140320, +0.729126, +26.260376, -77.651978, +190.078735
1490335947.704482, 1490335947.706767, -0.906372, +1.723206, +0.588318, +14.541626, -68.786621, +180.786133
1490335947.707058, 1490335947.709472, -0.906372, +1.723206, +0.588318, +15.167236, -68.786621, +180.786133
1490335947.709745, 1490335947.712158, -0.906372, +1.723206, +0.588318, +15.167236, -41.442871, +161.346436
1490335947.712432, 1490335947.714845, -0.906372, +1.723206, +0.307068, +8.789062, -42.098999, +161.346436
1490335947.715117, 1490335947.717541, -0.967896, +1.364685, +0.311096, +8.789062, -34.286499, +130.905151
1490335947.717813, 1490335947.720227, -0.967896, +1.364685, +0.311096, +15.808105, -31.265259, +130.905151
1490335947.720501, 1490335947.722913, -0.967896, +1.364685, +0.311096, +15.808105, -31.265259, +105.606079
1490335947.723187, 1490335947.725599, -0.874146, +0.638489, +0.313477, +20.278931, -38.635254, +105.606079
1490335947.725873, 1490335947.728293, -0.872681, +0.638489, +0.313477, +20.278931, -38.635254, +87.539673
1490335947.728566, 1490335947.730979, -0.872681, +0.638489, +0.313477, +19.958496, -40.954590, +87.539673
1490335947.731252, 1490335947.733666, -0.872681, +0.638489, +0.313477, +19.958496, -40.954590, +71.914673
1490335947.733938, 1490335947.736349, -0.283081, -0.084961, +0.284546, +18.630981, -26.962280, +71.670532
1490335947.736623, 1490335947.738942, -0.283081, -0.084961, +0.284546, +18.630981, -26.962280, +71.670532
1490335947.739212, 1490335947.741500, -0.283081, -0.084961, +0.284546, +2.441406, -10.940552, +54.565430
1490335947.741766, 1490335947.744054, -0.283081, -0.084961, +0.050171, +2.441406, -10.940552, +54.565430
1490335947.744320, 1490335947.746609, -0.154541, +0.525330, +0.062622, -8.880615, +0.885010, +33.691406
1490335947.746873, 1490335947.749300, -0.154541, +0.525330, +0.062622, -8.880615, +0.885010, +33.691406
1490335947.749570, 1490335947.751977, -0.154541, +0.525330, +0.062622, -6.164551, +1.800537, -1.098633
1490335947.752241, 1490335947.754653, -1.420166, +0.885315, +0.208923, -6.164551, +1.800537, -1.098633
1490335947.754916, 1490335947.757340, -1.433716, +0.885315, +0.208923, -0.198364, +11.489868, -35.049438
1490335947.757610, 1490335947.760023, -1.433716, +0.885315, +0.208923, -0.198364, +11.489868, -35.049438
1490335947.760294, 1490335947.762704, -1.433716, +0.885315, +0.208923, -3.112793, +15.609741, -63.613892
1490335947.762974, 1490335947.765384, -1.523071, +0.658813, +0.234924, -3.112793, +15.609741, -63.613892
1490335947.765654, 1490335947.768075, -1.523071, +0.658813, +0.234924, -5.889893, +17.059326, -86.349487
1490335947.768345, 1490335947.770755, -1.523071, +0.658813, +0.234924, -5.889893, +17.059326, -86.349487
1490335947.771025, 1490335947.773439, -1.523071, +0.658813, -0.068115, -1.983643, +30.822754, -113.021851
1490335947.773711, 1490335947.776123, -1.587891, +0.310364, -0.068115, -0.747681, +30.822754, -113.021851
1490335947.776398, 1490335947.778854, -1.587891, +0.310364, -0.068115, +3.158569, +43.457031, -138.046265
1490335947.779126, 1490335947.781540, -1.587891, +0.310364, -0.068115, +2.227783, +43.457031, -138.046265
1490335947.781812, 1490335947.784220, -1.209595, -0.020691, +0.027649, +2.227783, +39.550781, -154.281616
1490335947.784492, 1490335947.786899, -1.209595, -0.020691, +0.027649, -3.234863, +40.130615, -154.281616
1490335947.787163, 1490335947.789451, -1.209595, -0.020691, +0.027649, -3.234863, +40.130615, -165.298462
1490335947.789715, 1490335947.792004, -1.209595, -0.020691, +0.027649, -5.096436, +30.792236, -165.298462
1490335947.792267, 1490335947.794557, -0.719238, -0.028931, -0.121765, -5.096436, +30.792236, -165.298462
1490335947.794822, 1490335947.797126, -0.719238, -0.028931, -0.121765, -5.310059, +31.021118, -171.386719
1490335947.797400, 1490335947.799816, -0.719238, -0.028931, -0.121765, -5.310059, +31.021118, -171.386719
1490335947.800090, 1490335947.802505, -0.719238, -0.028931, -0.074890, -7.202148, +33.584595, -181.930542
1490335947.802776, 1490335947.805187, -0.611023, -0.019226, -0.083679, -7.202148, +33.584595, -181.930542
1490335947.805567, 1490335947.808034, -0.611023, -0.019226, -0.083679, -8.819580, +30.212402, -196.060181
1490335947.808306, 1490335947.810715, -0.611023, -0.019226, -0.083679, -8.819580, +30.212402, -196.060181
1490335947.810986, 1490335947.813398, -0.512878, +0.133301, +0.015747, -10.620117, +25.070190, -211.120605
1490335947.813673, 1490335947.816080, -0.512878, +0.133301, +0.015747, -10.620117, +25.070190, -211.120605
1490335947.816355, 1490335947.818779, -0.512878, +0.133301, +0.015747, -10.543823, +23.345947, -223.083496
1490335947.819053, 1490335947.821464, -0.512878, +0.133301, +0.015747, -10.543823, +23.345947, -223.083496
1490335947.821738, 1490335947.824152, -0.626770, +0.300476, +0.007690, -7.598877, +20.629883, -234.512329
1490335947.824424, 1490335947.826837, -0.626770, +0.300476, +0.007690, -7.598877, +20.629883, -234.512329
1490335947.827121, 1490335947.829533, -0.626770, +0.300476, +0.007690, -5.523682, +17.684937, -244.903564
1490335947.829807, 1490335947.832224, -0.626770, +0.394226, -0.021973, -5.523682, +17.684937, -244.903564
1490335947.832495, 1490335947.834910, -0.739746, +0.404480, -0.021973, -5.371094, +15.457153, -257.263184
1490335947.835182, 1490335947.837615, -0.739746, +0.404480, -0.021973, -5.371094, +15.457153, -257.263184
1490335947.837881, 1490335947.840165, -0.739746, +0.404480, -0.021973, -3.479004, +16.235352, -270.828247
1490335947.840430, 1490335947.842717, -0.757324, +0.507568, -0.084961, -3.479004, +16.235352, -270.828247
1490335947.842983, 1490335947.845265, -0.757324, +0.507568, -0.084961, -3.479004, +18.753052, -281.723022
1490335947.845530, 1490335947.847880, -0.757324, +0.507568, -0.084961, -3.311157, +18.753052, -281.723022
1490335947.848153, 1490335947.850564, -0.757324, +0.507568, -0.084961, -3.311157, +22.659302, -292.282104
1490335947.850838, 1490335947.853244, -0.741394, +0.611755, -0.107849, -4.699707, +21.865845, -292.282104
1490335947.853516, 1490335947.855926, -0.741394, +0.611755, -0.107849, -4.699707, +21.865845, -300.704956
1490335947.856199, 1490335947.858657, -0.741394, +0.611755, -0.107849, -6.912231, +26.245117, -300.704956
1490335947.858930, 1490335947.861337, -0.741394, +0.752380, -0.104187, -6.912231, +26.245117, -308.776855
1490335947.861609, 1490335947.864020, -0.699829, +0.773254, -0.104187, -10.177612, +28.793335, -308.776855
1490335947.864293, 1490335947.866708, -0.699829, +0.773254, -0.104187, -10.177612, +28.793335, -312.683105
1490335947.867021, 1490335947.869428, -0.699829, +0.773254, -0.104187, -11.611938, +30.761719, -314.453125
1490335947.869703, 1490335947.872110, -0.680786, +1.008362, -0.112244, -11.611938, +30.761719, -314.453125
1490335947.872386, 1490335947.874798, -0.680786, +1.008362, -0.112244, -12.725830, +31.036377, -320.022583
1490335947.875073, 1490335947.877496, -0.680786, +1.008362, -0.112244, -12.725830, +31.036377, -320.022583
1490335947.877771, 1490335947.880189, -0.680786, +1.008362, -0.112244, -13.015747, +33.981323, -324.401855
1490335947.880464, 1490335947.882876, -0.636475, +1.171692, -0.052734, -13.015747, +33.981323, -324.401855
1490335947.883150, 1490335947.885561, -0.636475, +1.171692, -0.052734, -15.518188, +37.719727, -327.224731
1490335947.885835, 1490335947.888196, -0.636475, +1.171692, -0.052734, -15.518188, +37.719727, -327.224731
1490335947.888463, 1490335947.890753, -0.636475, +1.303162, -0.009521, -16.784668, +40.863037, -331.634521
1490335947.891020, 1490335947.893306, -0.543457, +1.303162, -0.009521, -16.784668, +40.863037, -331.634521
1490335947.893574, 1490335947.895861, -0.543457, +1.303162, -0.009521, -18.341064, +44.143677, -335.159302
1490335947.896128, 1490335947.898491, -0.543457, +1.303162, -0.009521, -18.341064, +44.143677, -335.159302
1490335947.898764, 1490335947.901159, -0.531738, +1.413757, +0.072693, -19.958496, +47.424316, -340.194702
1490335947.901431, 1490335947.903825, -0.531738, +1.413757, +0.072693, -19.958496, +47.424316, -340.194702
1490335947.904097, 1490335947.906489, -0.531738, +1.413757, +0.072693, -19.958496, +51.895142, -345.199585
1490335947.906867, 1490335947.909276, -0.531738, +1.413757, +0.072693, -22.735596, +51.895142, -345.199585
1490335947.909550, 1490335947.911950, -0.509583, +1.610229, +0.109497, -26.641846, +55.633545, -352.188110
1490335947.912225, 1490335947.914621, -0.509583, +1.610229, +0.109497, -23.498535, +55.633545, -352.188110
1490335947.914893, 1490335947.917297, -0.509583, +1.610229, +0.109497, -23.498535, +59.768677, -356.979370
1490335947.917593, 1490335947.921580, -0.509583, +1.826477, +0.148132, -24.230957, +59.768677, -356.979370
1490335947.921860, 1490335947.924148, -0.486877, +1.826477, +0.148132, -26.657104, +61.904907, -362.594604
1490335947.924415, 1490335947.926695, -0.486877, +1.826477, +0.148132, -26.657104, +61.904907, -362.594604
1490335947.926959, 1490335947.929247, -0.486877, +1.826477, +0.189697, -27.221680, +62.667847, -366.775513
1490335947.929513, 1490335947.931801, -0.494202, +2.046936, +0.189697, -27.221680, +62.667847, -366.775513
1490335947.932067, 1490335947.934347, -0.494202, +2.046936, +0.189697, -29.022217, +62.835693, -371.673584
1490335947.934613, 1490335947.936896, -0.494202, +2.046936, +0.189697, -29.022217, +62.835693, -371.673584
