timestamp_before, timestamp_after, accel_x, accel_y, accel_z, gyro_x, gyro_y, gyro_z
1490301716.271520, 1490301716.273809, +5.998535, -5.998535, -1.163635, +0.976562, +2.456665, +0.274658
1490301716.274149, 1490301716.276493, +5.998535, -5.998535, -1.163635, +2.883911, +7.965088, -72.463989
1490301716.276754, 1490301716.279642, -0.152710, +1.011841, +0.180908, +2.883911, +7.965088, -72.463989
1490301716.279908, 1490301716.282192, -0.152710, +1.011841, +0.180908, +14.160156, -1.785278, -110.015869
1490301716.282456, 1490301716.284905, -0.152710, +1.011841, +0.180908, +14.160156, -1.785278, -110.015869
1490301716.285279, 1490301716.287575, -0.152710, +1.011841, +0.180908, +12.954712, -1.770020, -106.796265
1490301716.287839, 1490301716.292552, -0.145203, +0.969910, +0.160034, +12.954712, -1.770020, -106.796265
1490301716.293275, 1490301716.296931, -0.145203, +0.969910, +0.160034, +13.183594, -1.312256, -106.246948
1490301716.297207, 1490301716.300100, -0.153076, +0.994080, +0.156921, +13.412476, -1.922607, -106.246948
1490301716.300376, 1490301716.302671, -0.153076, +0.994080, +0.156921, +13.412476, -1.602173, -106.185913
1490301716.302944, 1490301716.305392, -0.153076, +0.994080, +0.156921, +13.885498, -1.602173, -106.185913
1490301716.305652, 1490301716.307943, -0.153076, +0.994080, +0.152710, +13.885498, -1.663208, -106.277466
1490301716.308208, 1490301716.310499, -0.154907, +0.994446, +0.152710, +13.824463, -1.663208, -106.277466
1490301716.310764, 1490301716.313055, -0.154907, +0.994446, +0.152710, +13.824463, -1.495361, -106.460571
1490301716.313319, 1490301716.315629, -0.154907, +0.994446, +0.152710, +13.671875, -1.495361, -106.460571
1490301716.315927, 1490301716.318220, -0.154907, +0.995544, +0.148682, +13.671875, -1.495361, -106.201172
1490301716.318484, 1490301716.320770, -0.157654, +0.995544, +0.148682, +13.198853, -1.571655, -106.201172
1490301716.321033, 1490301716.323323, -0.157654, +0.995544, +0.148682, +13.198853, -1.571655, -106.323242
1490301716.323586, 1490301716.325886, -0.157654, +0.995544, +0.148682, +12.939453, -1.647949, -106.323242
1490301716.326149, 1490301716.328439, -0.156372, +0.992432, +0.146667, +12.939453, -1.647949, -106.323242
1490301716.328704, 1490301716.330990, -0.156372, +0.992432, +0.146667, +13.458252, -1.678467, -106.201172
1490301716.331255, 1490301716.333540, -0.156372, +0.992432, +0.146667, +13.458252, -1.678467, -106.201172
1490301716.333804, 1490301716.336164, -0.156372, +0.992432, +0.146667, +14.190674, -1.525879, -106.552124
1490301716.336428, 1490301716.338718, -0.153076, +0.998474, +0.151611, +14.190674, -1.525879, -106.552124
1490301716.338983, 1490301716.341272, -0.153076, +0.998474, +0.151611, +13.641357, -1.083374, -106.262207
1490301716.341536, 1490301716.343821, -0.153076, +0.998474, +0.151611, +13.641357, -1.083374, -106.262207
1490301716.344084, 1490301716.346518, -0.153076, +0.998474, +0.151611, +13.549805, -1.159668, -106.185913
1490301716.346789, 1490301716.349189, -0.155640, +0.994629, +0.142639, +13.549805, -1.159668, -106.185913
1490301716.349458, 1490301716.351863, -0.155640, +0.994629, +0.142639, +14.205933, -1.541138, -106.292725
1490301716.352132, 1490301716.354544, -0.155640, +0.994629, +0.142639, +14.205933, -1.541138, -106.292725
1490301716.354808, 1490301716.357097, -0.155640, +0.994446, +0.143372, -172.821045, +12.817383, +402.053833
1490301716.357365, 1490301716.359690, -0.156921, +0.994446, +0.143372, -172.821045, +12.817383, +402.053833
1490301716.359956, 1490301716.362370, -0.156921, +0.994446, +0.143372, +186.752319, -13.885498, -498.977661
1490301716.362639, 1490301716.364964, -0.156921, +0.994446, +0.143372, +186.752319, -13.885498, -498.977661
1490301716.365237, 1490301716.367644, -0.157104, +0.996643, +0.149963, +12.191772, -1.312256, -98.129272
1490301716.367915, 1490301716.370311, -0.157104, +0.996643, +0.149963, +12.191772, -1.312256, -98.129272
1490301716.370581, 1490301716.372979, -0.157104, +0.996643, +0.149963, +12.619019, -1.327515, -106.628418
1490301716.373248, 1490301716.375663, -0.157104, +0.996643, +0.149963, +12.619019, -1.327515, -106.628418
1490301716.376082, 1490301716.378481, -0.151978, +0.992249, +0.143372, +13.092041, -1.693726, -106.445312
1490301716.378753, 1490301716.381149, -0.151978, +0.992249, +0.143372, +13.092041, -1.693726, -106.445312
1490301716.381417, 1490301716.383821, -0.151978, +0.992249, +0.143372, +13.137817, -1.358032, -106.231689
1490301716.384091, 1490301716.386506, -0.151978, +0.990601, +0.135315, +13.137817, -1.358032, -106.231689
1490301716.386778, 1490301716.389175, -0.158936, +0.990601, +0.135315, +12.969971, -1.571655, -106.170654
1490301716.389446, 1490301716.391848, -0.158936, +0.990601, +0.135315, +12.969971, -1.571655, -106.170654
1490301716.392117, 1490301716.394526, -0.158936, +0.990601, +0.135315, +13.610840, -1.800537, -106.491089
1490301716.394792, 1490301716.397091, -0.157104, +0.995911, +0.140076, +13.610840, -1.800537, -106.491089
1490301716.397356, 1490301716.399639, -0.157104, +0.995911, +0.140076, +13.259888, -1.632690, -106.384277
1490301716.399904, 1490301716.402193, -0.157104, +0.995911, +0.140076, +13.259888, -1.632690, -106.384277
1490301716.402457, 1490301716.405377, -0.157104, +0.995911, +0.140076, +12.817383, -1.495361, -106.094360
1490301716.405644, 1490301716.407933, -0.156372, +0.995544, +0.139343, +12.817383, -1.495361, -106.094360
1490301716.408197, 1490301716.410492, -0.156372, +0.995544, +0.139343, +13.168335, -1.647949, -106.307983
1490301716.410755, 1490301716.413044, -0.156372, +0.995544, +0.139343, +13.168335, -1.647949, -106.307983
1490301716.413306, 1490301716.415787, -0.156372, +0.995361, +0.134216, +14.114380, -1.937866, -104.644775
1490301716.416053, 1490301716.418348, -0.152161, +0.995361, +0.134216, +14.114380, -1.937866, -104.644775
1490301716.418613, 1490301716.420899, -0.152161, +0.995361, +0.134216, +14.114380, -2.227783, -89.355469
1490301716.421162, 1490301716.423448, -0.152161, +0.995361, +0.134216, +14.648438, -2.227783, -89.355469
1490301716.423711, 1490301716.426007, -0.157471, +0.994812, +0.139709, +14.648438, -2.227783, -81.436157
1490301716.426273, 1490301716.428560, -0.157471, +0.994812, +0.139709, +14.343262, -0.671387, -81.436157
1490301716.428825, 1490301716.431115, -0.157471, +0.994812, +0.139709, +14.343262, -0.671387, -81.436157
1490301716.431378, 1490301716.433662, -0.157471, +0.994812, +0.139709, +12.557983, -0.198364, -78.475952
1490301716.433927, 1490301716.436221, -0.156006, +0.995911, +0.148499, +12.557983, -0.198364, -78.475952
1490301716.436485, 1490301716.438775, -0.156006, +0.995911, +0.148499, +12.283325, -0.518799, -76.400757
1490301716.439038, 1490301716.441321, -0.156006, +0.995911, +0.148499, +12.283325, -0.518799, -76.400757
1490301716.441585, 1490301716.443872, -0.156006, +0.995911, +0.148499, +12.481689, -0.457764, -74.569702
1490301716.444135, 1490301716.446551, -0.156555, +0.996826, +0.141907, +12.481689, -0.457764, -74.569702
1490301716.446822, 1490301716.449242, -0.156555, +0.996826, +0.141907, +12.573242, +0.549316, -70.938110
1490301716.449512, 1490301716.451930, -0.156555, +0.996826, +0.141907, +12.573242, +0.549316, -70.938110
1490301716.452204, 1490301716.454623, -0.156555, +0.995544, +0.148315, +11.138916, +1.663208, -66.528320
1490301716.454888, 1490301716.457267, -0.158386, +0.995544, +0.148315, +11.138916, +1.663208, -66.528320
1490301716.457532, 1490301716.459827, -0.158386, +0.995544, +0.148315, +8.972168, +1.846313, -61.477661
1490301716.460088, 1490301716.462385, -0.158386, +0.995544, +0.148315, +8.972168, +1.846313, -61.477661
1490301716.462646, 1490301716.465023, -0.153625, +1.000305, +0.145935, +8.972168, +1.846313, -56.533813
1490301716.465291, 1490301716.467672, -0.153625, +1.000305, +0.145935, +7.904053, +1.815796, -56.533813
1490301716.467938, 1490301716.470441, -0.153625, +1.000305, +0.145935, +7.904053, +1.815796, -51.101685
1490301716.470707, 1490301716.473095, -0.153625, +1.000305, +0.145935, +8.453369, +1.800537, -51.101685
1490301716.474120, 1490301716.476551, -0.155273, +0.995911, +0.145752, +8.972168, +2.517700, -43.762207
1490301716.476822, 1490301716.479236, -0.155273, +0.995911, +0.145752, +8.972168, +2.517700, -43.762207
1490301716.479631, 1490301716.482047, -0.155273, +0.995911, +0.145752, +5.065918, +2.258301, -35.949707
1490301716.482315, 1490301716.484746, -0.161682, +0.994080, +0.146667, +7.034302, +2.258301, -35.949707
1490301716.485014, 1490301716.487434, -0.161682, +0.994080, +0.146667, +7.034302, +1.998901, -30.578613
1490301716.487702, 1490301716.490118, -0.161682, +0.994080, +0.146667, +6.301880, +1.998901, -30.578613
1490301716.490385, 1490301716.492800, -0.161682, +0.994080, +0.138977, +6.301880, +2.914429, -24.398804
1490301716.493070, 1490301716.495500, -0.156555, +0.997925, +0.138977, +6.774902, +2.914429, -24.398804
1490301716.495769, 1490301716.498183, -0.156555, +0.997925, +0.138977, +6.774902, +2.914429, -15.487671
1490301716.498451, 1490301716.500868, -0.156555, +0.997925, +0.138977, +6.912231, +2.685547, -15.487671
1490301716.501135, 1490301716.503551, -0.156372, +0.993530, +0.133667, +6.912231, +2.685547, -8.239746
1490301716.503815, 1490301716.506148, -0.156372, +0.993530, +0.133667, +8.834839, +1.129150, -8.239746
1490301716.506406, 1490301716.508697, -0.156372, +0.993530, +0.133667, +8.834839, +1.129150, -8.239746
1490301716.508955, 1490301716.511252, -0.156372, +0.993530, +0.133667, +9.552002, +0.732422, -4.348755
1490301716.511511, 1490301716.513793, -0.155823, +0.995361, +0.140442, +9.552002, +0.732422, -4.348755
1490301716.514051, 1490301716.516514, -0.155823, +0.995361, +0.140442, +9.582520, +0.137329, -4.425049
1490301716.516772, 1490301716.519062, -0.155823, +0.995361, +0.140442, +9.582520, +0.137329, -4.425049
1490301716.519321, 1490301716.521613, -0.155823, +0.995361, +0.140442, +9.918213, +0.686646, -5.172729
1490301716.521871, 1490301716.524163, -0.163147, +0.994263, +0.144470, +9.918213, +0.686646, -5.172729
1490301716.524547, 1490301716.526922, -0.163147, +0.994263, +0.144470, +8.972168, +0.457764, -4.776001
1490301716.527185, 1490301716.529596, -0.163147, +0.994263, +0.144470, +8.972168, +0.457764, -4.776001
1490301716.529862, 1490301716.532278, -0.163147, +0.994995, +0.140442, +9.597778, +0.534058, -5.905151
1490301716.532543, 1490301716.534964, -0.152710, +0.994995, +0.140442, +9.597778, +0.534058, -5.905151
1490301716.535228, 1490301716.537646, -0.152710, +0.994995, +0.140442, +9.643555, +0.656128, -4.882812
1490301716.537911, 1490301716.540330, -0.152710, +0.994995, +0.140442, +9.643555, +0.656128, -4.882812
1490301716.540596, 1490301716.543016, -0.156921, +0.995361, +0.145203, +9.643555, -0.015259, -4.699707
1490301716.543282, 1490301716.545713, -0.156921, +0.995361, +0.145203, +8.926392, -0.015259, -4.699707
1490301716.545980, 1490301716.548398, -0.156921, +0.995361, +0.145203, +8.926392, -0.091553, -6.149292
1490301716.548665, 1490301716.551084, -0.156921, +0.995361, +0.098328, +9.918213, -0.091553, -6.149292
1490301716.551349, 1490301716.553767, -0.155090, +0.998291, +0.135132, +9.918213, +3.814697, -5.523682
1490301716.554030, 1490301716.556357, -0.155090, +0.998291, +0.135132, +10.116577, +0.503540, -5.523682
1490301716.556620, 1490301716.558908, -0.155090, +0.998291, +0.135132, +10.116577, +0.503540, -5.645752
1490301716.559171, 1490301716.561460, -0.155090, +0.995361, +0.141724, +9.307861, -0.350952, -5.645752
1490301716.561719, 1490301716.564004, -0.146118, +0.995361, +0.141724, +9.307861, -0.350952, -5.645752
1490301716.564261, 1490301716.566586, -0.146118, +0.995361, +0.141724, +10.009766, -0.396729, -6.118774
1490301716.566847, 1490301716.569132, -0.146118, +0.995361, +0.141724, +10.009766, -0.396729, -6.118774
1490301716.569393, 1490301716.571682, -0.155090, +0.993896, +0.143188, +9.552002, -0.335693, -4.867554
1490301716.571941, 1490301716.574230, -0.155090, +0.993896, +0.143188, +9.552002, -0.335693, -4.867554
1490301716.574494, 1490301716.576874, -0.155090, +0.993896, +0.143188, +9.872437, -0.747681, -6.179810
1490301716.577138, 1490301716.579514, -0.155090, +0.993896, +0.143188, +9.872437, -0.747681, -6.179810
1490301716.579776, 1490301716.582302, -0.157837, +0.992432, +0.148315, +9.841919, -0.244141, -5.264282
1490301716.582568, 1490301716.585052, -0.157837, +0.992432, +0.148315, +9.841919, -0.244141, -5.264282
1490301716.585435, 1490301716.587844, -0.157837, +0.992432, +0.148315, +9.674072, -0.747681, -5.783081
1490301716.588111, 1490301716.590518, -0.157837, +0.992981, +0.148132, +9.674072, -0.747681, -5.783081
1490301716.590783, 1490301716.593194, -0.163147, +0.992981, +0.148132, +9.963989, -0.625610, -5.813599
1490301716.593459, 1490301716.595886, -0.163147, +0.992981, +0.148132, +9.963989, -0.625610, -5.813599
1490301716.596150, 1490301716.598569, -0.163147, +0.992981, +0.148132, +9.414673, -0.503540, -5.508423
1490301716.598834, 1490301716.601252, -0.157471, +0.996826, +0.145935, +9.414673, -0.503540, -5.508423
1490301716.601519, 1490301716.603935, -0.157471, +0.996826, +0.145935, +9.414673, +0.030518, -5.432129
1490301716.604202, 1490301716.606546, -0.157471, +0.996826, +0.145935, +10.421753, +0.030518, -5.432129
1490301716.606809, 1490301716.609096, -0.157471, +0.996826, +0.145935, +10.421753, -3.875732, -5.172729
1490301716.609357, 1490301716.611648, -0.157288, +0.994629, +0.140808, +9.307861, -0.732422, -5.172729
1490301716.611905, 1490301716.614201, -0.157288, +0.994629, +0.140808, +9.307861, -0.732422, -5.172729
1490301716.614460, 1490301716.616751, -0.157288, +0.994629, +0.140808, +10.192871, -0.473022, -5.981445
1490301716.617012, 1490301716.619299, -0.157288, +0.994629, +0.146851, +10.192871, -0.473022, -5.981445
1490301716.619560, 1490301716.621850, -0.151428, +0.997925, +0.146851, +9.735107, -0.320435, -4.959106
1490301716.622107, 1490301716.624541, -0.151428, +0.997925, +0.146851, +9.735107, -0.320435, -4.959106
1490301716.624801, 1490301716.627096, -0.151428, +0.997925, +0.146851, +9.216309, -0.823975, -5.493164
1490301716.627354, 1490301716.629641, -0.151428, +0.996460, +0.148315, +9.216309, -0.823975, -5.493164
1490301716.629899, 1490301716.632184, -0.157471, +0.996460, +0.148315, +9.811401, -0.320435, -5.233765
1490301716.632443, 1490301716.634877, -0.157471, +0.996460, +0.148315, +9.811401, -0.320435, -5.233765
1490301716.635145, 1490301716.637558, -0.157471, +0.996460, +0.148315, +9.475708, -0.625610, -5.355835
1490301716.637823, 1490301716.640236, -0.158203, +0.993347, +0.140076, +9.475708, -0.625610, -5.355835
1490301716.640502, 1490301716.642918, -0.158203, +0.993347, +0.140076, +10.253906, -0.122070, -5.355835
1490301716.643187, 1490301716.645585, -0.158203, +0.993347, +0.140076, +10.253906, -0.122070, -5.355835
1490301716.645846, 1490301716.648137, -0.158203, +0.993347, +0.140076, +10.253906, -0.137329, -4.943848
1490301716.648396, 1490301716.650685, -0.161133, +0.994812, +0.142090, +9.445190, -0.137329, -4.943848
1490301716.650943, 1490301716.653233, -0.161133, +0.994812, +0.142090, +9.445190, -0.137329, -4.898071
1490301716.653492, 1490301716.655892, -0.161133, +0.994812, +0.142090, +9.704590, +0.030518, -4.898071
1490301716.656158, 1490301716.658569, -0.161133, +0.994812, +0.145203, +9.704590, +0.030518, -4.898071
1490301716.658836, 1490301716.661247, -0.162231, +0.995544, +0.145203, +9.307861, -0.045776, -4.653931
1490301716.661513, 1490301716.663932, -0.162231, +0.995544, +0.145203, +9.307861, -0.045776, -4.653931
1490301716.664197, 1490301716.666657, -0.162231, +0.995544, +0.145203, +9.719849, +0.167847, -4.425049
1490301716.666922, 1490301716.669340, -0.160217, +0.995544, +0.147583, +9.719849, +0.167847, -4.425049
1490301716.669607, 1490301716.672024, -0.160217, +0.995544, +0.147583, +9.140015, +0.061035, -4.394531
1490301716.672291, 1490301716.674716, -0.160217, +0.995544, +0.147583, +9.140015, +0.061035, -4.394531
1490301716.674982, 1490301716.677400, -0.160217, +0.995544, +0.147583, +9.933472, -0.106812, -4.302979
1490301716.677666, 1490301716.680079, -0.155273, +0.996094, +0.147217, +9.933472, -0.106812, -4.302979
1490301716.680345, 1490301716.682757, -0.155273, +0.996094, +0.147217, +9.658813, -0.473022, -4.440308
1490301716.683024, 1490301716.685403, -0.155273, +0.996094, +0.147217, +9.658813, -0.473022, -4.440308
1490301716.685661, 1490301716.687950, -0.155273, +0.999390, +0.144836, +9.658813, +0.015259, -4.196167
1490301716.688208, 1490301716.690499, -0.157471, +0.999390, +0.144836, +9.658813, +0.015259, -4.196167
1490301716.690865, 1490301716.693158, -0.157471, +0.999390, +0.144836, +9.780884, -0.030518, -4.913330
1490301716.693419, 1490301716.695715, -0.157471, +0.999390, +0.144836, +9.780884, -0.030518, -4.913330
1490301716.695976, 1490301716.698268, -0.152527, +0.997559, +0.147217, +10.391235, -0.030518, -4.241943
1490301716.698531, 1490301716.700821, -0.152527, +0.997559, +0.147217, +10.391235, -0.030518, -4.241943
1490301716.701082, 1490301716.703373, -0.152527, +0.997559, +0.147217, +10.391235, -0.030518, -4.409790
1490301716.703634, 1490301716.705975, -0.152527, +0.997559, +0.147217, +10.620117, -0.244141, -4.409790
1490301716.706236, 1490301716.708521, -0.154541, +0.997742, +0.146851, +10.620117, -0.244141, -4.226685
1490301716.708781, 1490301716.711072, -0.154541, +0.997742, +0.146851, +10.330200, -0.167847, -4.226685
1490301716.711334, 1490301716.713621, -0.154541, +0.997742, +0.146851, +10.330200, -0.167847, -4.226685
1490301716.713883, 1490301716.716293, -0.154541, +0.997742, +0.146851, +9.826660, -0.473022, -4.943848
1490301716.716558, 1490301716.718978, -0.156738, +0.994080, +0.144470, +9.826660, -0.473022, -4.943848
1490301716.719242, 1490301716.721655, -0.156738, +0.994080, +0.144470, +10.009766, -0.152588, -4.760742
1490301716.721924, 1490301716.724339, -0.156738, +0.994080, +0.144470, +10.009766, -0.152588, -4.760742
1490301716.724661, 1490301716.727081, -0.156738, +0.994080, +0.142639, +10.375977, -0.457764, -4.867554
1490301716.727350, 1490301716.729762, -0.154724, +0.994080, +0.142639, +10.375977, -0.457764, -4.867554
1490301716.730029, 1490301716.732451, -0.154724, +0.994080, +0.142639, +10.025024, -0.091553, -4.470825
1490301716.732720, 1490301716.735145, -0.154724, +0.994080, +0.142639, +10.025024, -0.091553, -4.470825
1490301716.735414, 1490301716.737829, -0.151978, +0.992615, +0.146301, +10.070801, +0.061035, -4.867554
1490301716.738100, 1490301716.740515, -0.151978, +0.992615, +0.146301, +10.070801, +0.061035, -4.867554
1490301716.740784, 1490301716.743198, -0.151978, +0.992615, +0.146301, +9.429932, -0.122070, -5.035400
1490301716.743465, 1490301716.745889, -0.151978, +0.992615, +0.145386, +9.429932, -0.122070, -5.035400
1490301716.746155, 1490301716.748569, -0.157654, +0.993347, +0.145386, +10.360718, -0.289917, -5.004883
1490301716.748836, 1490301716.751247, -0.157654, +0.993347, +0.145386, +10.360718, -0.289917, -5.004883
1490301716.751513, 1490301716.753930, -0.157654, +0.993347, +0.145386, +9.719849, -0.198364, -4.791260
1490301716.754198, 1490301716.756536, -0.153259, +0.993164, +0.143372, +9.719849, -0.198364, -4.791260
1490301716.756796, 1490301716.759085, -0.153259, +0.993164, +0.143372, +9.719849, +0.183105, -4.882812
1490301716.759345, 1490301716.761638, -0.153259, +0.993164, +0.143372, +10.284424, +0.183105, -4.882812
1490301716.761900, 1490301716.764186, -0.153259, +0.993164, +0.143372, +10.284424, +0.183105, -4.318237
1490301716.764479, 1490301716.766890, -0.154541, +0.993896, +0.138428, +9.674072, +0.045776, -4.318237
1490301716.767157, 1490301716.769575, -0.154541, +0.993896, +0.138428, +9.674072, +0.045776, -5.218506
1490301716.769841, 1490301716.772256, -0.154541, +0.993896, +0.138428, +10.314941, -0.244141, -5.218506
1490301716.772524, 1490301716.774951, -0.154541, +0.993896, +0.185303, +10.314941, -0.244141, -5.218506
1490301716.775219, 1490301716.777632, -0.154175, +0.992798, +0.147766, +9.902954, -0.076294, -4.043579
1490301716.777900, 1490301716.780313, -0.154175, +0.992798, +0.147766, +9.902954, -0.076294, -4.043579
1490301716.780578, 1490301716.782995, -0.154175, +0.992798, +0.147766, +9.963989, -0.106812, -5.401611
1490301716.783259, 1490301716.785690, -0.154175, +0.992981, +0.138428, +9.963989, -0.106812, -5.401611
1490301716.785957, 1490301716.788369, -0.153625, +0.992981, +0.138428, +9.567261, +0.000000, -4.714966
1490301716.788633, 1490301716.791047, -0.153625, +0.992981, +0.138428, +9.567261, +0.000000, -4.714966
1490301716.791314, 1490301716.793728, -0.153625, +0.992981, +0.138428, +9.994507, -0.274658, -5.401611
1490301716.794099, 1490301716.796428, -0.151245, +0.997925, +0.148132, +9.994507, -0.274658, -5.401611
1490301716.796686, 1490301716.798973, -0.151245, +0.997925, +0.148132, +10.025024, +0.213623, -5.142212
1490301716.799234, 1490301716.801524, -0.151245, +0.997925, +0.148132, +10.025024, +0.213623, -5.142212
1490301716.801785, 1490301716.804077, -0.151245, +0.997925, +0.148132, +9.597778, -0.228882, -5.813599
1490301716.804333, 1490301716.806629, -0.154724, +0.999207, +0.144104, +9.597778, -0.228882, -5.813599
1490301716.806888, 1490301716.809173, -0.154724, +0.999207, +0.144104, +9.674072, +0.320435, -5.386353
1490301716.809431, 1490301716.811721, -0.154724, +0.999207, +0.144104, +9.674072, +0.320435, -5.386353
1490301716.811980, 1490301716.814268, -0.154724, +0.999207, +0.146484, +9.674072, +0.320435, -6.393433
1490301716.814542, 1490301716.816962, -0.149780, +0.999939, +0.146484, +10.009766, +0.289917, -6.393433
1490301716.817233, 1490301716.819646, -0.149780, +0.999939, +0.146484, +10.009766, +0.289917, -5.950928
1490301716.819914, 1490301716.822331, -0.149780, +0.999939, +0.146484, +9.902954, +0.518799, -5.950928
1490301716.822598, 1490301716.825036, -0.153259, +0.995361, +0.150146, +9.902954, +0.518799, -6.301880
1490301716.825300, 1490301716.827714, -0.153259, +0.995361, +0.150146, +9.658813, -0.045776, -6.301880
1490301716.827979, 1490301716.830395, -0.153259, +0.995361, +0.150146, +9.658813, -0.045776, -6.301880
1490301716.830662, 1490301716.833082, -0.153259, +0.995361, +0.150146, +9.857178, +0.411987, -5.966187
1490301716.833347, 1490301716.835768, -0.157471, +0.993347, +0.151611, +9.857178, +0.411987, -5.966187
1490301716.836034, 1490301716.838454, -0.157471, +0.993347, +0.151611, +9.475708, +0.335693, -6.301880
1490301716.838722, 1490301716.841137, -0.157471, +0.993347, +0.151611, +9.475708, +0.335693, -6.301880
1490301716.841402, 1490301716.843821, -0.157471, +1.002869, +0.151428, +9.613037, +0.518799, -5.691528
1490301716.844087, 1490301716.846412, -0.162598, +1.002869, +0.151428, +9.613037, +0.518799, -5.691528
1490301716.846669, 1490301716.848960, -0.162598, +1.002869, +0.151428, +10.055542, +0.366211, -6.378174
1490301716.849222, 1490301716.851510, -0.162598, +1.002869, +0.151428, +10.055542, +0.366211, -6.378174
1490301716.851772, 1490301716.854063, -0.164429, +1.011292, +0.150330, +9.704590, +0.213623, -5.844116
1490301716.854322, 1490301716.856778, -0.164429, +1.011292, +0.150330, +9.704590, +0.213623, -5.844116
1490301716.857042, 1490301716.859427, -0.164429, +1.011292, +0.150330, +10.177612, +0.213623, -5.935669
1490301716.859695, 1490301716.862075, -0.164429, +1.011292, +0.150330, +10.177612, +0.213623, -5.935669
1490301716.862343, 1490301716.864847, -0.156738, +1.001404, +0.146851, +9.658813, -0.045776, -5.783081
1490301716.865122, 1490301716.868842, -0.156738, +1.001404, +0.146851, +9.658813, -0.045776, -5.783081
1490301716.869129, 1490301716.872534, -0.156738, +1.001404, +0.146851, +10.177612, -0.030518, -6.057739
1490301716.872814, 1490301716.876174, -0.155090, +0.989685, +0.143188, +9.506226, -0.503540, -5.538940
1490301716.876459, 1490301716.878869, -0.155090, +0.989685, +0.143188, +9.506226, -0.503540, -5.538940
1490301716.879134, 1490301716.881537, -0.155090, +0.989685, +0.143188, +10.223389, +0.106812, -5.691528
1490301716.881805, 1490301716.884215, -0.158020, +0.984924, +0.145752, +10.223389, +0.106812, -5.691528
1490301716.884492, 1490301716.886894, -0.158020, +0.984924, +0.145752, +9.338379, -0.030518, -4.791260
1490301716.887160, 1490301716.889557, -0.158020, +0.984924, +0.145752, +9.338379, -0.030518, -4.791260
1490301716.889823, 1490301716.892226, -0.158020, +0.984924, +0.136047, +9.338379, -0.030518, -5.706787
1490301716.892490, 1490301716.894902, -0.164429, +0.987488, +0.136047, +9.796143, -0.030518, -5.706787
1490301716.895165, 1490301716.897567, -0.164429, +0.987488, +0.136047, +9.796143, +0.717163, -4.531860
1490301716.897830, 1490301716.900234, -0.164429, +0.987488, +0.136047, +9.475708, +0.717163, -4.531860
1490301716.900499, 1490301716.902895, -0.162415, +0.986206, +0.140808, +9.475708, +0.717163, -5.050659
1490301716.903317, 1490301716.905747, -0.162415, +0.986206, +0.140808, +9.231567, +0.503540, -5.050659
1490301716.906011, 1490301716.908424, -0.162415, +0.986206, +0.140808, +9.231567, +0.503540, -4.730225
1490301716.908691, 1490301716.911105, -0.162415, +0.986206, +0.140808, +9.826660, +1.403809, -4.730225
1490301716.911369, 1490301716.913785, -0.160217, +0.992065, +0.145569, +9.826660, +1.403809, -4.119873
1490301716.914051, 1490301716.916476, -0.160217, +0.992065, +0.145569, +9.002686, +1.068115, -4.119873
1490301716.916743, 1490301716.919155, -0.160217, +0.992065, +0.145569, +9.002686, +1.068115, -4.714966
1490301716.919419, 1490301716.921839, -0.160217, +0.994263, +0.140076, +9.735107, +1.266479, -4.714966
1490301716.922104, 1490301716.924527, -0.153809, +0.994263, +0.140076, +9.735107, +1.266479, -4.714966
1490301716.924792, 1490301716.927217, -0.153809, +0.994263, +0.140076, +9.368896, +1.190186, -4.028320
1490301716.927483, 1490301716.929894, -0.153809, +0.994263, +0.140076, +9.368896, +1.190186, -4.028320
1490301716.930160, 1490301716.932574, -0.149597, +0.992798, +0.140991, +9.323120, +0.854492, -4.745483
1490301716.932839, 1490301716.935270, -0.149597, +0.992798, +0.140991, +9.323120, +0.854492, -4.745483
1490301716.935534, 1490301716.937950, -0.149597, +0.992798, +0.140991, +9.536743, +1.327515, -4.211426
1490301716.938214, 1490301716.940631, -0.149597, +0.992798, +0.141724, +9.536743, +1.327515, -4.211426
1490301716.940895, 1490301716.943315, -0.148132, +0.989319, +0.141724, +9.048462, +1.388550, -4.455566
1490301716.943579, 1490301716.945979, -0.148132, +0.989319, +0.141724, +9.048462, +1.388550, -4.455566
1490301716.946237, 1490301716.948526, -0.148132, +0.989319, +0.141724, +10.025024, +1.373291, -3.738403
1490301716.948789, 1490301716.951076, -0.148132, +0.987854, +0.144653, +10.025024, +1.373291, -3.738403
1490301716.951337, 1490301716.953626, -0.168091, +0.987854, +0.144653, +9.201050, +1.296997, -4.119873
1490301716.953883, 1490301716.956195, -0.168091, +0.987854, +0.144653, +9.201050, +1.296997, -4.119873
1490301716.956452, 1490301716.958743, -0.168091, +0.987854, +0.144653, +9.231567, +2.182007, -3.616333
1490301716.958999, 1490301716.961288, -0.179810, +0.989868, +0.153442, +9.231567, +2.182007, -3.616333
1490301716.961545, 1490301716.963838, -0.179810, +0.989868, +0.153442, +9.231567, +2.182007, -3.479004
1490301716.964095, 1490301716.966509, -0.179810, +0.989868, +0.153442, +9.140015, +2.746582, -3.479004
1490301716.966773, 1490301716.969197, -0.179810, +0.989868, +0.153442, +9.140015, +2.746582, -3.189087
1490301716.969461, 1490301716.971876, -0.150330, +1.002869, +0.149597, +9.063721, +2.746582, -3.189087
1490301716.972141, 1490301716.974554, -0.150330, +1.002869, +0.149597, +9.063721, +2.746582, -3.189087
1490301716.974817, 1490301716.977233, -0.150330, +1.002869, +0.149597, +9.140015, +2.090454, -3.738403
1490301716.977499, 1490301716.979914, -0.150330, +1.002869, +0.149963, +9.140015, +2.090454, -3.738403
1490301716.980177, 1490301716.982591, -0.166626, +1.004517, +0.149963, +8.514404, +2.441406, -3.372192
1490301716.982854, 1490301716.985287, -0.166626, +1.004517, +0.149963, +8.514404, +2.441406, -3.372192
1490301716.985551, 1490301716.987963, -0.166626, +1.004517, +0.149963, +8.880615, +2.731323, -4.608154
1490301716.988228, 1490301716.990648, -0.152893, +1.004333, +0.148132, +8.880615, +2.731323, -4.608154
1490301716.990909, 1490301716.993326, -0.152893, +1.004333, +0.148132, +8.911133, +2.960205, -4.211426
1490301716.993590, 1490301716.996047, -0.152893, +1.004333, +0.148132, +8.911133, +2.960205, -4.211426
1490301716.996311, 1490301716.998730, -0.152893, +1.004333, +0.148132, +8.819580, +3.128052, -4.806519
1490301716.998993, 1490301717.001406, -0.136597, +0.997742, +0.143921, +8.819580, +3.128052, -4.806519
1490301717.001670, 1490301717.004085, -0.136597, +0.997742, +0.143921, +9.002686, +2.593994, -4.455566
1490301717.004348, 1490301717.006646, -0.136597, +0.997742, +0.143921, +9.002686, +2.593994, -4.455566
1490301717.006905, 1490301717.009191, -0.136597, +0.993530, +0.155640, +8.743286, +2.319336, -5.523682
1490301717.009557, 1490301717.011851, -0.150513, +0.993530, +0.155640, +8.743286, +2.319336, -5.523682
1490301717.012109, 1490301717.014443, -0.150513, +0.993530, +0.155640, +8.377075, +2.761841, -4.898071
1490301717.014711, 1490301717.017122, -0.150513, +0.993530, +0.155640, +8.377075, +2.761841, -4.898071
1490301717.017385, 1490301717.019801, -0.145752, +0.991516, +0.151428, +8.666992, +2.441406, -5.523682
1490301717.020065, 1490301717.022480, -0.145752, +0.991516, +0.151428, +8.666992, +2.441406, -5.523682
1490301717.022744, 1490301717.025161, -0.145752, +0.991516, +0.151428, +8.666992, +2.273560, -5.050659
1490301717.025425, 1490301717.027842, -0.145752, +0.991516, +0.151428, +8.728027, +2.273560, -5.050659
1490301717.028106, 1490301717.030517, -0.151062, +0.993164, +0.146301, +8.728027, +2.014160, -6.027222
1490301717.030782, 1490301717.033203, -0.151062, +0.993164, +0.146301, +8.560181, +2.014160, -6.027222
1490301717.033468, 1490301717.035888, -0.151062, +0.993164, +0.146301, +8.560181, +2.014160, -4.821777
1490301717.036153, 1490301717.038566, -0.151062, +0.991516, +0.152710, +8.529663, +2.075195, -4.821777
1490301717.038830, 1490301717.041249, -0.153992, +0.991516, +0.152710, +8.529663, +2.075195, -5.432129
1490301717.041514, 1490301717.043929, -0.153992, +0.991516, +0.152710, +8.468628, +1.678467, -5.432129
1490301717.044191, 1490301717.046554, -0.153992, +0.991516, +0.152710, +8.468628, +1.678467, -5.432129
1490301717.046812, 1490301717.049105, -0.157837, +0.992798, +0.151611, +8.666992, +1.998901, -5.142212
1490301717.049363, 1490301717.051650, -0.157837, +0.992798, +0.151611, +8.666992, +1.998901, -5.142212
1490301717.051907, 1490301717.054201, -0.157837, +0.992798, +0.151611, +8.300781, +1.724243, -5.599976
1490301717.054469, 1490301717.056750, -0.157837, +0.992798, +0.151611, +8.300781, +1.724243, -5.599976
1490301717.057007, 1490301717.059287, -0.157104, +0.990601, +0.153442, +8.712769, +1.800537, -5.218506
1490301717.059546, 1490301717.061840, -0.157104, +0.990601, +0.153442, +8.712769, +1.800537, -5.218506
1490301717.062099, 1490301717.064385, -0.157104, +0.990601, +0.153442, +8.605957, +1.602173, -5.569458
1490301717.064722, 1490301717.067656, -0.157104, +0.996094, +0.150696, +8.605957, +1.602173, -5.569458
1490301717.067919, 1490301717.070205, -0.153442, +0.996094, +0.150696, +8.621216, +1.617432, -5.325317
1490301717.070464, 1490301717.072748, -0.153442, +0.996094, +0.150696, +8.621216, +1.617432, -5.325317
1490301717.073006, 1490301717.075380, -0.153442, +0.996094, +0.150696, +8.392334, +1.449585, -5.599976
1490301717.075640, 1490301717.077921, -0.155640, +0.998474, +0.150330, +8.392334, +1.449585, -5.599976
1490301717.078180, 1490301717.080462, -0.155640, +0.998474, +0.150330, +8.392334, +1.739502, -4.974365
1490301717.080719, 1490301717.083004, -0.155640, +0.998474, +0.150330, +8.743286, +1.739502, -4.974365
1490301717.083260, 1490301717.085604, -0.155640, +0.998474, +0.150330, +8.743286, +1.739502, -5.432129
1490301717.085862, 1490301717.088148, -0.156555, +0.999573, +0.149231, +8.438110, +1.480103, -5.432129
1490301717.088404, 1490301717.090692, -0.156555, +0.999573, +0.149231, +8.438110, +1.480103, -5.432129
1490301717.090949, 1490301717.093234, -0.156555, +0.999573, +0.149231, +9.185791, +1.632690, -5.249023
1490301717.093490, 1490301717.095825, -0.156555, +0.999573, +0.149231, +9.185791, +1.632690, -5.249023
1490301717.096082, 1490301717.098376, -0.165894, +0.996460, +0.152344, +8.377075, +1.281738, -4.852295
1490301717.098633, 1490301717.100926, -0.165894, +0.996460, +0.152344, +8.377075, +1.281738, -4.852295
1490301717.101183, 1490301717.103473, -0.165894, +0.996460, +0.152344, +8.697510, +1.480103, -4.714966
1490301717.103730, 1490301717.106224, -0.165894, +0.996460, +0.153442, +8.697510, +1.480103, -4.714966
1490301717.106492, 1490301717.108905, -0.153076, +0.998474, +0.153442, +8.850098, +1.022339, -5.462646
1490301717.109170, 1490301717.111587, -0.153076, +0.998474, +0.153442, +8.850098, +1.022339, -5.462646
1490301717.111962, 1490301717.114381, -0.153076, +0.998474, +0.153442, +9.109497, +0.671387, -4.928589
1490301717.114692, 1490301717.117107, -0.143188, +0.997925, +0.155640, +9.109497, +0.671387, -4.928589
1490301717.117372, 1490301717.119782, -0.143188, +0.997925, +0.155640, +8.895874, +0.106812, -5.661011
1490301717.120050, 1490301717.122462, -0.143188, +0.997925, +0.155640, +8.895874, +0.106812, -5.661011
1490301717.122729, 1490301717.125149, -0.143188, +0.997925, +0.155640, +8.834839, +0.427246, -5.065918
1490301717.125413, 1490301717.127831, -0.154907, +0.991333, +0.147949, +8.834839, +0.427246, -5.065918
1490301717.128095, 1490301717.130506, -0.154907, +0.991333, +0.147949, +8.834839, +0.579834, -5.477905
1490301717.130771, 1490301717.133190, -0.154907, +0.991333, +0.147949, +8.605957, +0.579834, -5.477905
1490301717.133456, 1490301717.135881, -0.154907, +0.994080, +0.160034, +8.605957, +0.854492, -4.852295
1490301717.136149, 1490301717.138566, -0.154907, +0.994080, +0.160034, +8.102417, +0.854492, -4.852295
1490301717.138832, 1490301717.141248, -0.154907, +0.994080, +0.160034, +8.102417, +0.854492, -5.615234
1490301717.141513, 1490301717.143925, -0.154907, +0.994080, +0.160034, +8.575439, +0.213623, -5.615234
1490301717.144190, 1490301717.146648, -0.160400, +0.994812, +0.147766, +8.575439, +0.213623, -4.943848
1490301717.146913, 1490301717.149327, -0.160400, +0.994812, +0.147766, +8.514404, +0.381470, -4.943848
1490301717.149594, 1490301717.152005, -0.160400, +0.994812, +0.147766, +8.514404, +0.381470, -5.264282
1490301717.152271, 1490301717.154702, -0.160400, +0.994812, +0.147766, +8.575439, +0.396729, -5.264282
1490301717.154970, 1490301717.157387, -0.159668, +0.994080, +0.151794, +8.575439, +0.396729, -5.264282
1490301717.157652, 1490301717.160067, -0.159668, +0.994080, +0.151794, +8.697510, +0.930786, -4.409790
1490301717.160333, 1490301717.162748, -0.159668, +0.994080, +0.151794, +8.697510, +0.930786, -4.409790
1490301717.163012, 1490301717.165467, -0.159668, +0.992798, +0.152893, +9.002686, +0.808716, -5.111694
1490301717.165732, 1490301717.168153, -0.166443, +0.992798, +0.152893, +9.002686, +0.808716, -5.111694
1490301717.168418, 1490301717.170832, -0.166443, +0.992798, +0.152893, +8.132935, +0.930786, -4.455566
1490301717.171097, 1490301717.173514, -0.166443, +0.992798, +0.152893, +8.132935, +0.930786, -4.455566
1490301717.173778, 1490301717.176250, -0.164246, +1.000122, +0.157837, +8.651733, +0.839233, -4.943848
1490301717.176514, 1490301717.178927, -0.164246, +1.000122, +0.157837, +8.651733, +0.839233, -4.943848
1490301717.179190, 1490301717.181609, -0.164246, +1.000122, +0.157837, +7.949829, +0.885010, -3.814697
1490301717.181873, 1490301717.184289, -0.164246, +1.000122, +0.147217, +7.949829, +0.885010, -3.814697
1490301717.184562, 1490301717.186981, -0.147217, +1.000305, +0.147217, +8.163452, +0.640869, -5.172729
1490301717.187246, 1490301717.189667, -0.147217, +1.000305, +0.147217, +8.163452, +0.640869, -5.172729
1490301717.189931, 1490301717.192351, -0.147217, +1.000305, +0.147217, +8.026123, +0.396729, -4.653931
1490301717.192617, 1490301717.195019, -0.151978, +0.997192, +0.151428, +8.026123, +0.396729, -4.653931
1490301717.195278, 1490301717.197570, -0.151978, +0.997192, +0.151428, +8.392334, +0.350952, -5.218506
1490301717.197828, 1490301717.200123, -0.151978, +0.997192, +0.151428, +8.392334, +0.350952, -5.218506
1490301717.200380, 1490301717.202670, -0.151978, +0.997192, +0.151428, +8.605957, +0.656128, -4.638672
1490301717.202925, 1490301717.205289, -0.151062, +0.990784, +0.153259, +8.605957, +0.656128, -4.638672
1490301717.205555, 1490301717.207968, -0.151062, +0.990784, +0.153259, +8.605957, +0.488281, -5.340576
1490301717.208234, 1490301717.210651, -0.151062, +0.990784, +0.153259, +8.300781, +0.488281, -5.340576
1490301717.210916, 1490301717.213328, -0.151062, +0.990784, +0.163879, +8.300781, +0.488281, -4.516602
1490301717.213595, 1490301717.216051, -0.153809, +0.990601, +0.163879, +8.239746, +0.701904, -4.516602
1490301717.216317, 1490301717.218731, -0.153809, +0.990601, +0.163879, +8.239746, +0.701904, -5.218506
1490301717.219105, 1490301717.221525, -0.153809, +0.990601, +0.163879, +8.300781, +0.457764, -5.218506
1490301717.221792, 1490301717.224210, -0.158752, +0.990051, +0.154907, +8.300781, +0.457764, -4.409790
1490301717.224487, 1490301717.226898, -0.158752, +0.990051, +0.154907, +8.468628, +0.793457, -4.409790
1490301717.227164, 1490301717.229583, -0.158752, +0.990051, +0.154907, +8.468628, +0.793457, -4.806519
1490301717.229847, 1490301717.232260, -0.158752, +0.990051, +0.154907, +8.071899, +0.122070, -4.806519
1490301717.232526, 1490301717.234952, -0.164429, +0.992981, +0.155640, +8.071899, +0.122070, -4.806519
1490301717.235218, 1490301717.237630, -0.164429, +0.992981, +0.155640, +7.934570, +0.656128, -4.257202
1490301717.237896, 1490301717.240312, -0.164429, +0.992981, +0.155640, +7.934570, +0.656128, -4.257202
1490301717.240580, 1490301717.243000, -0.164429, +0.996460, +0.158203, +7.980347, +1.068115, -4.440308
1490301717.243264, 1490301717.245631, -0.170288, +0.996460, +0.158203, +7.980347, +1.068115, -4.440308
1490301717.245889, 1490301717.248180, -0.170288, +0.996460, +0.158203, +8.529663, +1.602173, -4.028320
1490301717.248438, 1490301717.250724, -0.170288, +0.996460, +0.158203, +8.529663, +1.602173, -4.028320
1490301717.250981, 1490301717.253272, -0.160217, +0.997375, +0.152344, +8.010864, +1.632690, -4.547119
1490301717.253529, 1490301717.255908, -0.160217, +0.997375, +0.152344, +8.010864, +1.632690, -4.547119
1490301717.256172, 1490301717.258588, -0.160217, +0.997375, +0.152344, +8.392334, +1.724243, -4.104614
1490301717.258851, 1490301717.261268, -0.160217, +0.997375, +0.152344, +8.392334, +1.724243, -4.104614
1490301717.261535, 1490301717.263949, -0.152161, +0.994446, +0.165527, +8.361816, +1.510620, -4.653931
1490301717.264213, 1490301717.266640, -0.152161, +0.994446, +0.165527, +8.361816, +1.510620, -4.653931
1490301717.266905, 1490301717.269323, -0.152161, +0.994446, +0.165527, +8.422852, +2.075195, -4.425049
1490301717.269587, 1490301717.272000, -0.152161, +0.994446, +0.159668, +8.422852, +2.075195, -4.425049
1490301717.272265, 1490301717.274684, -0.151611, +0.993164, +0.159668, +8.422852, +1.327515, -4.623413
1490301717.274950, 1490301717.277364, -0.151611, +0.993164, +0.159668, +8.071899, +1.327515, -4.623413
1490301717.277629, 1490301717.280039, -0.151611, +0.993164, +0.159668, +8.071899, +1.434326, -4.028320
1490301717.280303, 1490301717.282716, -0.150696, +0.995178, +0.159302, +8.621216, +1.434326, -4.028320
1490301717.282980, 1490301717.285457, -0.150696, +0.995178, +0.159302, +8.621216, +1.434326, -4.394531
1490301717.285720, 1490301717.288137, -0.150696, +0.995178, +0.159302, +7.949829, +0.640869, -4.394531
1490301717.288402, 1490301717.290819, -0.150696, +0.995178, +0.159302, +7.949829, +0.640869, -4.821777
1490301717.291084, 1490301717.293502, -0.157104, +0.993896, +0.162964, +8.438110, +0.808716, -4.821777
1490301717.293767, 1490301717.296142, -0.157104, +0.993896, +0.162964, +8.438110, +0.808716, -4.135132
1490301717.296402, 1490301717.298690, -0.157104, +0.993896, +0.162964, +7.781982, +0.350952, -4.135132
1490301717.298947, 1490301717.301240, -0.157104, +0.993896, +0.158020, +7.781982, +0.350952, -4.135132
1490301717.301497, 1490301717.303793, -0.155090, +0.987671, +0.158020, +8.514404, +0.549316, -3.524780
1490301717.304051, 1490301717.306496, -0.155090, +0.987671, +0.158020, +8.514404, +0.549316, -3.524780
1490301717.306760, 1490301717.309181, -0.155090, +0.987671, +0.158020, +7.522583, +0.213623, -3.921509
1490301717.309446, 1490301717.311860, -0.164429, +0.991882, +0.160034, +7.522583, +0.213623, -3.921509
1490301717.312124, 1490301717.314547, -0.164429, +0.991882, +0.160034, +8.255005, +0.610352, -4.241943
1490301717.314812, 1490301717.317226, -0.164429, +0.991882, +0.160034, +8.255005, +0.610352, -4.241943
1490301717.317492, 1490301717.319908, -0.164429, +0.991882, +0.160034, +7.553101, +0.701904, -3.143311
1490301717.320172, 1490301717.322589, -0.163513, +0.990051, +0.153076, +7.553101, +0.701904, -3.143311
1490301717.322853, 1490301717.325283, -0.163513, +0.990051, +0.153076, +7.507324, +1.266479, -3.112793
1490301717.325655, 1490301717.328069, -0.163513, +0.990051, +0.153076, +7.507324, +1.266479, -3.112793
1490301717.328333, 1490301717.330748, -0.163513, +0.990417, +0.147400, +7.247925, +0.900269, -3.128052
1490301717.331014, 1490301717.333424, -0.159119, +0.990417, +0.147400, +7.247925, +0.900269, -3.128052
1490301717.333688, 1490301717.336113, -0.159119, +0.990417, +0.147400, +7.141113, +1.510620, -2.380371
1490301717.336377, 1490301717.338791, -0.159119, +0.990417, +0.147400, +7.141113, +1.510620, -2.380371
1490301717.339056, 1490301717.341474, -0.154541, +0.989319, +0.148315, +6.393433, +1.251221, -2.517700
1490301717.341737, 1490301717.344156, -0.154541, +0.989319, +0.148315, +6.393433, +1.251221, -2.517700
1490301717.344429, 1490301717.346724, -0.154541, +0.989319, +0.148315, +6.393433, +1.739502, -2.426147
1490301717.346981, 1490301717.349275, -0.154541, +0.989319, +0.148315, +7.492065, +1.739502, -2.426147
1490301717.349534, 1490301717.351824, -0.159302, +0.989136, +0.155457, +7.492065, +1.739502, -2.243042
1490301717.352082, 1490301717.354368, -0.159302, +0.989136, +0.155457, +6.408691, +1.754761, -2.243042
1490301717.354745, 1490301717.357159, -0.159302, +0.989136, +0.155457, +6.408691, +1.754761, -2.517700
1490301717.357424, 1490301717.359836, -0.159302, +0.991882, +0.165527, +6.942749, +2.044678, -2.517700
1490301717.360100, 1490301717.362514, -0.152344, +0.991882, +0.165527, +6.942749, +2.044678, -2.517700
1490301717.362777, 1490301717.365237, -0.152344, +0.991882, +0.165527, +6.652832, +1.800537, -1.586914
1490301717.365501, 1490301717.367915, -0.152344, +0.991882, +0.165527, +6.652832, +1.800537, -1.586914
1490301717.368180, 1490301717.370595, -0.157288, +0.997742, +0.160767, +6.759644, +1.983643, -2.426147
1490301717.370859, 1490301717.373279, -0.157288, +0.997742, +0.160767, +6.759644, +1.983643, -2.426147
1490301717.373545, 1490301717.375965, -0.157288, +0.997742, +0.160767, +6.256104, +2.120972, -2.166748
1490301717.376228, 1490301717.378644, -0.157288, +0.997742, +0.160767, +6.256104, +2.120972, -2.166748
1490301717.378908, 1490301717.381325, -0.147766, +0.992065, +0.162415, +7.492065, +2.578735, -2.273560
1490301717.381589, 1490301717.383999, -0.147766, +0.992065, +0.162415, +7.492065, +2.578735, -2.273560
1490301717.384262, 1490301717.386575, -0.147766, +0.992065, +0.162415, +7.019043, +2.182007, -1.708984
1490301717.386833, 1490301717.389127, -0.147766, +0.984924, +0.161133, +7.019043, +2.182007, -1.708984
1490301717.389384, 1490301717.391679, -0.150146, +0.984924, +0.161133, +7.110596, +2.426147, -1.602173
1490301717.391935, 1490301717.394222, -0.150146, +0.984924, +0.161133, +7.110596, +2.426147, -1.602173
1490301717.394462, 1490301717.396879, -0.150146, +0.984924, +0.161133, +6.500244, +2.685547, -1.373291
1490301717.397142, 1490301717.399558, -0.145203, +0.975952, +0.165161, +6.500244, +2.685547, -1.373291
1490301717.399821, 1490301717.402237, -0.145203, +0.975952, +0.165161, +6.500244, +2.777100, -1.190186
1490301717.402500, 1490301717.404927, -0.145203, +0.975952, +0.165161, +7.431030, +2.777100, -1.190186
1490301717.405191, 1490301717.407606, -0.145203, +0.975952, +0.165161, +7.431030, +2.471924, -0.152588
1490301717.407869, 1490301717.410281, -0.162415, +0.976501, +0.159119, +6.912231, +2.471924, -0.152588
1490301717.410548, 1490301717.412962, -0.162415, +0.976501, +0.159119, +6.912231, +2.471924, -0.991821
1490301717.413227, 1490301717.415673, -0.162415, +0.976501, +0.159119, +6.225586, +2.868652, -0.991821
1490301717.415937, 1490301717.418356, -0.162415, +0.986206, +0.160950, +6.225586, +2.868652, +0.259399
1490301717.418620, 1490301717.421040, -0.158569, +0.986206, +0.160950, +6.347656, +3.280640, +0.259399
1490301717.421304, 1490301717.423722, -0.158569, +0.986206, +0.160950, +6.347656, +3.280640, -0.442505
1490301717.423989, 1490301717.426362, -0.158569, +0.986206, +0.160950, +6.408691, +3.463745, -0.442505
1490301717.426620, 1490301717.428911, -0.140808, +0.997375, +0.159851, +6.408691, +3.463745, -0.442505
1490301717.429168, 1490301717.431454, -0.140808, +0.997375, +0.159851, +6.622314, +4.104614, +0.411987
1490301717.431816, 1490301717.434104, -0.140808, +0.997375, +0.159851, +6.622314, +4.104614, +0.411987
1490301717.434362, 1490301717.436659, -0.140808, +0.997375, +0.159851, +6.607056, +3.616333, +0.244141
1490301717.436916, 1490301717.439206, -0.161316, +0.994995, +0.165527, +6.607056, +3.616333, +0.244141
1490301717.439461, 1490301717.441753, -0.161316, +0.994995, +0.165527, +6.057739, +4.547119, +0.793457
1490301717.442009, 1490301717.444301, -0.161316, +0.994995, +0.165527, +6.057739, +4.547119, +0.793457
1490301717.444574, 1490301717.446990, -0.161316, +0.994995, +0.165527, +5.966187, +4.653931, +0.091553
1490301717.447255, 1490301717.449670, -0.155640, +0.999573, +0.159485, +5.966187, +4.653931, +0.091553
1490301717.449937, 1490301717.452351, -0.155640, +0.999573, +0.159485, +5.676270, +5.340576, +0.717163
1490301717.452617, 1490301717.455043, -0.155640, +0.999573, +0.159485, +5.676270, +5.340576, +0.717163
1490301717.455308, 1490301717.457720, -0.138245, +1.000488, +0.161682, +5.462646, +4.821777, +0.518799
1490301717.457982, 1490301717.460402, -0.138245, +1.000488, +0.161682, +5.462646, +4.821777, +0.518799
1490301717.460664, 1490301717.463081, -0.138245, +1.000488, +0.161682, +5.462646, +4.867554, +1.083374
1490301717.463345, 1490301717.465759, -0.138245, +1.000488, +0.161682, +4.898071, +4.867554, +1.083374
1490301717.466022, 1490301717.468436, -0.146301, +0.994446, +0.152893, +4.898071, +4.867554, -0.122070
1490301717.468702, 1490301717.471115, -0.146301, +0.994446, +0.152893, +4.928589, +4.592896, -0.122070
1490301717.471381, 1490301717.473798, -0.146301, +0.994446, +0.152893, +4.928589, +4.592896, +0.320435
1490301717.474063, 1490301717.476382, -0.146301, +0.994446, +0.151428, +4.470825, +4.760742, +0.320435
1490301717.476640, 1490301717.478929, -0.133301, +0.980896, +0.151428, +4.470825, +4.760742, -3.585815
1490301717.479185, 1490301717.481478, -0.133301, +0.980896, +0.151428, +4.013062, +4.852295, -0.228882
1490301717.481736, 1490301717.484032, -0.133301, +0.980896, +0.151428, +4.013062, +4.852295, -0.228882
1490301717.484291, 1490301717.486703, -0.180176, +0.983093, +0.149048, +3.982544, +5.599976, +0.564575
1490301717.486967, 1490301717.489380, -0.141907, +0.983093, +0.149048, +3.982544, +5.599976, +0.564575
1490301717.489645, 1490301717.492057, -0.141907, +0.983093, +0.149048, +3.768921, +6.072998, +0.167847
1490301717.492323, 1490301717.494749, -0.141907, +0.983093, +0.149048, +3.768921, +6.072998, +0.167847
1490301717.495012, 1490301717.497426, -0.140076, +0.979797, +0.152527, +3.967285, +7.415771, +0.610352
1490301717.497689, 1490301717.500107, -0.140076, +0.979797, +0.152527, +3.967285, +7.415771, +0.610352
1490301717.500374, 1490301717.502790, -0.140076, +0.979797, +0.152527, +3.021240, +8.178711, +0.244141
1490301717.503057, 1490301717.505486, -0.140076, +0.979797, +0.153625, +3.021240, +8.178711, +0.244141
1490301717.505750, 1490301717.508167, -0.147400, +0.979797, +0.153625, +3.753662, +9.490967, +0.656128
1490301717.508432, 1490301717.510842, -0.147400, +0.979797, +0.153625, +3.753662, +9.490967, +0.656128
1490301717.511106, 1490301717.513523, -0.147400, +0.979797, +0.153625, +2.807617, +10.238647, +1.739502
1490301717.513792, 1490301717.516258, -0.138245, +0.984741, +0.168640, +2.807617, +10.238647, +1.739502
1490301717.516524, 1490301717.518942, -0.138245, +0.984741, +0.168640, +2.883911, +10.330200, +1.113892
1490301717.519209, 1490301717.521628, -0.138245, +0.984741, +0.168640, +2.883911, +10.330200, +1.113892
1490301717.521895, 1490301717.524317, -0.138245, +0.984741, +0.168640, +3.372192, +10.726929, +1.785278
1490301717.524579, 1490301717.526866, -0.151794, +0.982178, +0.179993, +3.372192, +10.726929, +1.785278
1490301717.527127, 1490301717.529415, -0.151794, +0.982178, +0.179993, +3.372192, +10.253906, +2.288818
1490301717.529675, 1490301717.531968, -0.151794, +0.982178, +0.179993, +1.937866, +10.253906, +2.288818
1490301717.532227, 1490301717.534536, -0.151794, +0.982178, +0.179993, +1.937866, +10.253906, +1.190186
1490301717.534931, 1490301717.537268, -0.163513, +0.985291, +0.179993, +2.578735, +10.055542, +1.190186
1490301717.537532, 1490301717.539822, -0.163513, +0.985291, +0.179993, +2.578735, +10.055542, +1.190186
1490301717.540083, 1490301717.542373, -0.163513, +0.985291, +0.179993, +2.471924, +10.299683, +1.968384
1490301717.542632, 1490301717.545030, -0.163513, +0.999939, +0.171753, +2.471924, +10.299683, +1.968384
1490301717.545297, 1490301717.547676, -0.131287, +0.999939, +0.171753, +1.770020, +9.521484, +1.388550
1490301717.547940, 1490301717.550352, -0.131287, +0.999939, +0.171753, +1.770020, +9.521484, +1.388550
1490301717.550617, 1490301717.553054, -0.131287, +0.999939, +0.171753, +1.846313, +9.155273, +1.266479
1490301717.553322, 1490301717.555742, -0.108948, +1.001221, +0.160583, +1.846313, +9.155273, +1.266479
1490301717.556006, 1490301717.558423, -0.108948, +1.001221, +0.160583, +1.495361, +8.270264, +0.976562
1490301717.558689, 1490301717.561106, -0.108948, +1.001221, +0.160583, +1.495361, +8.270264, +0.976562
1490301717.561371, 1490301717.563787, -0.108948, +1.001221, +0.160583, +1.251221, +8.102417, +1.678467
1490301717.564051, 1490301717.566479, -0.114258, +0.985657, +0.162781, +1.251221, +8.102417, +1.678467
1490301717.566744, 1490301717.569165, -0.114258, +0.985657, +0.162781, +0.915527, +7.888794, +1.083374
1490301717.569433, 1490301717.571848, -0.114258, +0.985657, +0.162781, +0.915527, +7.888794, +1.083374
1490301717.572111, 1490301717.574537, -0.114258, +0.971741, +0.175781, +0.946045, +8.193970, +1.342773
1490301717.574796, 1490301717.577093, -0.117737, +0.971741, +0.175781, +0.946045, +8.193970, +1.342773
1490301717.577351, 1490301717.579648, -0.117737, +0.971741, +0.175781, +0.961304, +9.063721, +0.640869
1490301717.579906, 1490301717.582200, -0.117737, +0.971741, +0.175781, +0.961304, +9.063721, +0.640869
1490301717.582458, 1490301717.584779, -0.121765, +0.966614, +0.177795, +0.961304, +9.063721, +1.266479
1490301717.585043, 1490301717.587508, -0.121765, +0.966614, +0.177795, +0.793457, +9.887695, +1.266479
1490301717.587821, 1490301717.590291, -0.121765, +0.966614, +0.177795, +0.793457, +9.887695, +0.549316
1490301717.590561, 1490301717.592979, -0.121765, +0.966614, +0.177795, +0.671387, +9.780884, +0.549316
1490301717.593246, 1490301717.595614, -0.128540, +0.968628, +0.179443, +0.671387, +9.780884, +1.052856
1490301717.595872, 1490301717.598170, -0.128540, +0.968628, +0.179443, +0.366211, +10.620117, +1.052856
1490301717.598431, 1490301717.600720, -0.128540, +0.968628, +0.179443, +0.366211, +10.620117, +1.052856
1490301717.600983, 1490301717.603275, -0.128540, +0.966431, +0.187866, +0.778198, +10.665894, +0.488281
1490301717.603535, 1490301717.606067, -0.120667, +0.966431, +0.187866, +0.778198, +10.665894, +0.488281
1490301717.606338, 1490301717.608757, -0.120667, +0.966431, +0.187866, +1.083374, +11.169434, +1.342773
1490301717.609027, 1490301717.611442, -0.120667, +0.966431, +0.187866, +1.083374, +11.169434, +1.342773
1490301717.611711, 1490301717.614132, -0.124878, +0.982178, +0.183289, +0.564575, +10.833740, +1.327515
1490301717.614442, 1490301717.616861, -0.124878, +0.982178, +0.183289, +0.564575, +10.833740, +1.327515
1490301717.617129, 1490301717.619546, -0.124878, +0.982178, +0.183289, +0.762939, +11.840820, +2.243042
1490301717.619814, 1490301717.622226, -0.124878, +0.982178, +0.230164, +0.762939, +11.840820, +2.243042
1490301717.622495, 1490301717.624902, -0.148499, +1.008911, +0.190063, +0.839233, +11.627197, +1.602173
1490301717.625164, 1490301717.627458, -0.148499, +1.008911, +0.190063, +0.839233, +11.627197, +1.602173
1490301717.627719, 1490301717.630011, -0.148499, +1.008911, +0.190063, +1.083374, +11.947632, +2.609253
1490301717.630271, 1490301717.632562, -0.148499, +1.006897, +0.228882, +1.083374, +11.947632, +2.609253
1490301717.632824, 1490301717.635240, -0.143005, +1.006897, +0.228882, +1.220703, +11.428833, +3.280640
1490301717.635500, 1490301717.637792, -0.143005, +1.006897, +0.228882, +1.220703, +11.428833, +3.280640
1490301717.638052, 1490301717.640350, -0.143005, +1.006897, +0.228882, +1.220703, +10.284424, +3.219604
1490301717.640741, 1490301717.643035, -0.209473, +0.990967, +0.237854, +0.915527, +10.284424, +3.219604
1490301717.643296, 1490301717.645780, -0.209473, +0.990967, +0.237854, +0.915527, +10.284424, +2.838135
1490301717.646049, 1490301717.648455, -0.209473, +0.990967, +0.237854, +0.823975, +10.314941, +2.838135
1490301717.648722, 1490301717.651126, -0.209473, +0.990967, +0.237854, +0.823975, +10.314941, +3.402710
1490301717.651394, 1490301717.653798, -0.144104, +1.001221, +0.232544, +0.518799, +9.704590, +3.402710
1490301717.654062, 1490301717.656480, -0.144104, +1.001221, +0.232544, +0.518799, +9.704590, +2.960205
1490301717.656742, 1490301717.659147, -0.144104, +1.001221, +0.232544, +1.831055, +9.567261, +2.960205
1490301717.659410, 1490301717.661820, -0.144104, +0.988586, +0.209473, +1.831055, +9.567261, +2.960205
1490301717.662085, 1490301717.664520, -0.092285, +0.988586, +0.209473, +0.900269, +7.766724, +3.433228
1490301717.664786, 1490301717.667200, -0.092285, +0.988586, +0.209473, +0.900269, +7.766724, +3.433228
1490301717.667466, 1490301717.669881, -0.092285, +0.988586, +0.209473, +1.098633, +6.408691, +2.059937
1490301717.670147, 1490301717.672560, -0.095398, +0.977234, +0.213867, +1.098633, +6.408691, +2.059937
1490301717.672826, 1490301717.675256, -0.095398, +0.977234, +0.213867, +0.701904, +5.340576, +1.739502
1490301717.675522, 1490301717.677946, -0.095398, +0.977234, +0.213867, +0.701904, +5.340576, +1.739502
1490301717.678210, 1490301717.680620, -0.095398, +0.977234, +0.213867, +1.068115, +3.677368, +0.656128
1490301717.680886, 1490301717.683308, -0.076355, +0.969910, +0.197388, +1.068115, +3.677368, +0.656128
1490301717.683573, 1490301717.686038, -0.076355, +0.969910, +0.197388, +0.427246, +1.739502, +0.152588
1490301717.686305, 1490301717.688719, -0.076355, +0.969910, +0.197388, +0.427246, +1.739502, +0.152588
1490301717.688985, 1490301717.691403, -0.076355, +0.983643, +0.192078, +0.793457, +0.244141, +0.000000
1490301717.691669, 1490301717.694082, -0.080017, +0.983643, +0.192078, +0.793457, +0.244141, +0.000000
1490301717.694348, 1490301717.696777, -0.080017, +0.983643, +0.192078, +0.747681, -1.342773, -0.198364
1490301717.697042, 1490301717.699461, -0.080017, +0.983643, +0.192078, +0.747681, -1.342773, -0.198364
1490301717.699726, 1490301717.702141, -0.110779, +0.982361, +0.177429, +0.671387, -1.586914, -0.091553
1490301717.702406, 1490301717.704834, -0.110779, +0.982361, +0.177429, +0.671387, -1.586914, -0.091553
1490301717.705101, 1490301717.707519, -0.110779, +0.982361, +0.177429, +0.518799, -1.281738, -0.564575
1490301717.707784, 1490301717.710197, -0.110779, +0.982361, +0.199402, +0.518799, -1.281738, -0.564575
1490301717.710462, 1490301717.712883, -0.138062, +0.989502, +0.199402, +0.106812, +0.106812, -0.076294
1490301717.713149, 1490301717.715563, -0.138062, +0.989502, +0.199402, +0.106812, +0.106812, -0.076294
1490301717.715829, 1490301717.718242, -0.138062, +0.989502, +0.199402, +0.183105, +0.839233, -0.381470
1490301717.718510, 1490301717.720924, -0.138794, +0.982361, +0.214417, +0.183105, +0.839233, -0.381470
1490301717.721190, 1490301717.723596, -0.138794, +0.982361, +0.214417, +0.183105, +2.624512, +0.488281
1490301717.723860, 1490301717.726195, -0.138794, +0.982361, +0.214417, +0.350952, +2.624512, +0.488281
1490301717.726453, 1490301717.728741, -0.138794, +0.982361, +0.214417, +0.350952, +2.624512, +0.045776
1490301717.728999, 1490301717.731291, -0.127625, +0.955811, +0.232361, +1.220703, +3.906250, +0.045776
1490301717.731548, 1490301717.733841, -0.127625, +0.955811, +0.232361, +1.220703, +3.906250, +0.045776
1490301717.734098, 1490301717.736504, -0.127625, +0.955811, +0.232361, +1.251221, +4.135132, +1.007080
1490301717.736768, 1490301717.739182, -0.127625, +0.955811, +0.236389, +1.251221, +4.135132, +1.007080
1490301717.739446, 1490301717.741863, -0.120483, +0.944458, +0.236389, +1.358032, +4.119873, +0.167847
1490301717.742128, 1490301717.744551, -0.120483, +0.944458, +0.236389, +1.358032, +4.119873, +0.167847
1490301717.744817, 1490301717.747233, -0.120483, +0.944458, +0.236389, +1.327515, +3.890991, +0.534058
1490301717.747605, 1490301717.750019, -0.063904, +0.963135, +0.233459, +1.327515, +3.890991, +0.534058
1490301717.750284, 1490301717.752698, -0.063904, +0.963135, +0.233459, +1.632690, +2.639771, -0.686646
1490301717.752966, 1490301717.755431, -0.063904, +0.963135, +0.233459, +1.632690, +2.639771, -0.686646
1490301717.755697, 1490301717.758111, -0.063904, +0.963135, +0.233459, +2.059937, +0.213623, -0.122070
1490301717.758378, 1490301717.760796, -0.078735, +1.016052, +0.235291, +2.059937, +0.213623, -0.122070
1490301717.761062, 1490301717.763478, -0.078735, +1.016052, +0.235291, +3.265381, -2.944946, -0.762939
1490301717.763743, 1490301717.766162, -0.078735, +1.016052, +0.235291, +3.265381, -2.944946, -0.762939
1490301717.766425, 1490301717.768843, -0.078735, +1.016052, +0.237671, +3.021240, -4.898071, -0.732422
1490301717.769108, 1490301717.771523, -0.142456, +1.016418, +0.237671, +3.021240, -4.898071, -0.732422
1490301717.771790, 1490301717.774195, -0.142456, +1.016418, +0.237671, +2.792358, -4.959106, -1.251221
1490301717.774467, 1490301717.776759, -0.142456, +1.016418, +0.237671, +2.792358, -4.959106, -1.251221
1490301717.777014, 1490301717.779304, -0.138611, +1.000305, +0.214233, +2.655029, -4.348755, -0.488281
1490301717.779560, 1490301717.781852, -0.138611, +1.000305, +0.214233, +2.655029, -4.348755, -0.488281
1490301717.782107, 1490301717.784447, -0.138611, +1.000305, +0.214233, +2.655029, -3.524780, +0.747681
1490301717.784712, 1490301717.787128, -0.138611, +1.000305, +0.214233, +2.777100, -3.524780, +0.747681
1490301717.787392, 1490301717.789809, -0.143555, +0.992065, +0.229980, +2.777100, -3.524780, +1.022339
1490301717.790073, 1490301717.792479, -0.143555, +0.992065, +0.229980, +3.097534, -3.433228, +1.022339
1490301717.792742, 1490301717.795160, -0.143555, +0.992065, +0.229980, +3.097534, -3.433228, +2.304077
1490301717.795424, 1490301717.797848, -0.143555, +0.992065, +0.244812, +3.509521, -2.655029, +2.304077
1490301717.798112, 1490301717.800528, -0.142273, +0.992615, +0.244812, +3.509521, -2.655029, +2.304077
1490301717.800792, 1490301717.803206, -0.142273, +0.992615, +0.244812, +3.646851, -2.304077, +2.929688
1490301717.803471, 1490301717.805906, -0.142273, +0.992615, +0.244812, +3.646851, -2.304077, +2.929688
1490301717.806170, 1490301717.808591, -0.115173, +1.009460, +0.269348, +3.814697, -2.853394, +3.067017
1490301717.808854, 1490301717.811276, -0.115173, +1.009460, +0.269348, +3.814697, -2.853394, +3.067017
1490301717.811540, 1490301717.813960, -0.115173, +1.009460, +0.269348, +4.684448, -4.165649, +2.914429
1490301717.814222, 1490301717.816538, -0.115173, +1.009460, +0.269348, +4.684448, -4.165649, +2.914429
1490301717.816793, 1490301717.819087, -0.058228, +1.008362, +0.252869, +4.730225, -7.263184, +2.212524
1490301717.819343, 1490301717.821628, -0.058228, +1.008362, +0.252869, +4.730225, -7.263184, +2.212524
1490301717.821885, 1490301717.824172, -0.058228, +1.008362, +0.252869, +5.599976, -10.681152, +1.556396
1490301717.824473, 1490301717.826765, -0.058228, +1.008362, +0.255615, +5.599976, -10.681152, +1.556396
1490301717.827026, 1490301717.829313, -0.048340, +1.002502, +0.255615, +6.210327, -14.129639, +0.915527
1490301717.829574, 1490301717.831869, -0.048340, +1.002502, +0.255615, +6.210327, -14.129639, +0.915527
1490301717.832129, 1490301717.834451, -0.048340, +1.002502, +0.255615, +6.210327, -16.311646, +1.586914
1490301717.834712, 1490301717.836999, -0.048340, +0.988586, +0.263306, +6.790161, -16.311646, +1.586914
1490301717.837260, 1490301717.839553, -0.094299, +0.988586, +0.263306, +6.790161, -16.311646, +1.327515
1490301717.839814, 1490301717.842102, -0.094299, +0.988586, +0.263306, +7.034302, -18.463135, +1.327515
1490301717.842363, 1490301717.844684, -0.094299, +0.988586, +0.263306, +7.034302, -18.463135, +1.327515
1490301717.844953, 1490301717.847372, -0.130005, +0.984558, +0.262756, +7.324219, -18.341064, +2.655029
1490301717.847641, 1490301717.850052, -0.130005, +0.984558, +0.262756, +7.324219, -18.341064, +2.655029
1490301717.850425, 1490301717.852845, -0.130005, +0.984558, +0.262756, +6.958008, -18.249512, +3.433228
1490301717.853114, 1490301717.855535, -0.130005, +0.984558, +0.262756, +6.958008, -18.249512, +3.433228
1490301717.855801, 1490301717.858214, -0.104736, +0.976501, +0.247742, +8.010864, -17.501831, +4.470825
1490301717.858483, 1490301717.860903, -0.104736, +0.976501, +0.247742, +8.010864, -17.501831, +4.470825
1490301717.861172, 1490301717.863585, -0.104736, +0.976501, +0.247742, +7.492065, -17.776489, +5.096436
1490301717.863854, 1490301717.866273, -0.104736, +0.985291, +0.251038, +7.492065, -17.776489, +5.096436
1490301717.866540, 1490301717.868959, -0.109131, +0.985291, +0.251038, +7.583618, -18.218994, +6.713867
1490301717.869227, 1490301717.871642, -0.109131, +0.985291, +0.251038, +7.583618, -18.218994, +6.713867
1490301717.871911, 1490301717.874330, -0.109131, +0.985291, +0.251038, +7.583618, -19.500732, +6.881714
1490301717.874703, 1490301717.877118, -0.108032, +0.999023, +0.240234, +7.583618, -19.500732, +6.881714
1490301717.877390, 1490301717.879803, -0.108032, +0.999023, +0.240234, +8.209229, -19.302368, +7.385254
1490301717.880073, 1490301717.882495, -0.108032, +0.999023, +0.240234, +8.209229, -19.302368, +7.385254
1490301717.882762, 1490301717.885140, -0.108032, +0.999023, +0.240234, +8.773804, -19.760132, +7.324219
1490301717.885402, 1490301717.887691, -0.117737, +0.991699, +0.266052, +8.773804, -19.760132, +7.324219
1490301717.887953, 1490301717.890249, -0.117737, +0.991699, +0.266052, +9.963989, -18.951416, +7.904053
1490301717.890509, 1490301717.892807, -0.117737, +0.991699, +0.266052, +9.963989, -18.951416, +7.904053
1490301717.893068, 1490301717.895461, -0.117737, +0.991699, +0.255249, +9.963989, -18.524170, +8.529663
1490301717.895730, 1490301717.898143, -0.105652, +0.989685, +0.255249, +9.582520, -18.524170, +8.529663
1490301717.898415, 1490301717.900829, -0.105652, +0.989685, +0.255249, +9.582520, -18.524170, +8.255005
1490301717.901099, 1490301717.903518, -0.105652, +0.989685, +0.255249, +10.726929, -17.562866, +8.255005
1490301717.903789, 1490301717.906251, -0.068665, +0.984924, +0.252869, +10.726929, -17.562866, +8.560181
1490301717.906522, 1490301717.908934, -0.068665, +0.984924, +0.252869, +9.857178, -17.562866, +8.560181
1490301717.909203, 1490301717.911621, -0.068665, +0.984924, +0.252869, +9.857178, -17.562866, +7.415771
1490301717.911891, 1490301717.914314, -0.068665, +0.984924, +0.252869, +10.421753, -18.096924, +7.415771
1490301717.914586, 1490301717.917006, -0.054749, +0.971191, +0.238770, +10.421753, -18.096924, +8.255005
1490301717.917277, 1490301717.919695, -0.054749, +0.971191, +0.238770, +10.742188, -18.432617, +8.255005
1490301717.919967, 1490301717.922384, -0.054749, +0.971191, +0.238770, +10.742188, -18.432617, +4.348755
1490301717.922654, 1490301717.925086, -0.054749, +0.962952, +0.227783, +11.138916, -19.592285, +6.774902
1490301717.925359, 1490301717.927778, -0.054749, +0.962952, +0.227783, +11.138916, -19.592285, +6.774902
1490301717.928049, 1490301717.930458, -0.054749, +0.962952, +0.227783, +11.276245, -19.454956, +7.415771
1490301717.930731, 1490301717.933148, -0.054749, +0.962952, +0.227783, +11.276245, -19.454956, +7.415771
1490301717.933419, 1490301717.935775, -0.068848, +0.963318, +0.218811, +10.833740, -19.393921, +6.820679
1490301717.936040, 1490301717.938334, -0.068848, +0.963318, +0.218811, +10.833740, -19.393921, +6.820679
1490301717.938598, 1490301717.940887, -0.068848, +0.963318, +0.218811, +11.245728, -18.478394, +6.637573
1490301717.941151, 1490301717.943441, -0.068848, +0.963318, +0.218811, +11.245728, -18.478394, +6.637573
1490301717.943704, 1490301717.946016, -0.071777, +0.964783, +0.221741, +10.437012, -17.562866, +7.125854
1490301717.946280, 1490301717.948563, -0.071777, +0.964783, +0.221741, +10.437012, -17.562866, +7.125854
1490301717.948829, 1490301717.951112, -0.071777, +0.964783, +0.221741, +11.123657, -16.006470, +6.072998
1490301717.951377, 1490301717.953666, -0.071777, +0.964783, +0.221558, +11.123657, -16.006470, +6.072998
1490301717.953929, 1490301717.956322, -0.069763, +0.970276, +0.221558, +11.123657, -14.907837, +6.881714
1490301717.956698, 1490301717.959080, -0.069763, +0.970276, +0.221558, +10.482788, -14.907837, +6.881714
1490301717.959349, 1490301717.961726, -0.069763, +0.970276, +0.221558, +10.482788, -14.907837, +6.072998
1490301717.961995, 1490301717.964369, -0.068481, +0.973572, +0.232361, +11.215210, -13.763428, +6.072998
1490301717.964744, 1490301717.967164, -0.068481, +0.973572, +0.232361, +11.215210, -13.763428, +6.378174
1490301717.967436, 1490301717.969851, -0.068481, +0.973572, +0.232361, +11.840820, -11.810303, +6.378174
1490301717.970123, 1490301717.972535, -0.068481, +0.973572, +0.232361, +11.840820, -11.810303, +6.301880
1490301717.972806, 1490301717.975229, -0.055115, +0.960388, +0.237122, +11.978149, -11.154175, +6.301880
1490301717.975501, 1490301717.977914, -0.055115, +0.960388, +0.237122, +11.978149, -11.154175, +6.301880
1490301717.978186, 1490301717.980604, -0.055115, +0.960388, +0.237122, +12.313843, -10.925293, +6.942749
1490301717.980877, 1490301717.983290, -0.055115, +0.954895, +0.242798, +12.313843, -10.925293, +6.942749
1490301717.983560, 1490301717.985979, -0.050903, +0.954895, +0.242798, +12.496948, -10.696411, +5.706787
1490301717.986250, 1490301717.988671, -0.050903, +0.954895, +0.242798, +12.496948, -10.696411, +5.706787
1490301717.988942, 1490301717.991354, -0.050903, +0.954895, +0.242798, +11.840820, -10.345459, +6.668091
1490301717.991625, 1490301717.994037, -0.046143, +0.961304, +0.224304, +11.840820, -10.345459, +6.668091
1490301717.994308, 1490301717.996623, -0.046143, +0.961304, +0.224304, +12.435913, -10.269165, +5.752563
1490301717.996889, 1490301717.999177, -0.046143, +0.961304, +0.224304, +12.435913, -10.269165, +5.752563
1490301717.999439, 1490301718.001734, -0.046143, +0.961304, +0.224304, +11.856079, -9.963989, +6.484985
1490301718.001995, 1490301718.004282, -0.052002, +0.969360, +0.228882, +11.856079, -9.963989, +6.484985
1490301718.004550, 1490301718.006963, -0.052002, +0.969360, +0.228882, +12.207031, -10.086060, +5.828857
1490301718.007235, 1490301718.009651, -0.052002, +0.969360, +0.228882, +12.207031, -10.086060, +5.828857
1490301718.009923, 1490301718.012336, -0.052002, +0.973572, +0.223022, +12.176514, -9.094238, +6.698608
1490301718.012607, 1490301718.015031, -0.067566, +0.973572, +0.223022, +12.176514, -9.094238, +6.698608
1490301718.015302, 1490301718.017717, -0.067566, +0.973572, +0.223022, +11.871338, -8.331299, +6.820679
1490301718.017985, 1490301718.020397, -0.067566, +0.973572, +0.223022, +11.871338, -8.331299, +6.820679
1490301718.020666, 1490301718.023078, -0.061890, +0.966431, +0.216431, +11.871338, -6.591797, +7.308960
1490301718.023346, 1490301718.025765, -0.061890, +0.966431, +0.216431, +12.374878, -6.591797, +7.308960
1490301718.026034, 1490301718.028447, -0.061890, +0.966431, +0.216431, +12.374878, -5.767822, +7.629395
1490301718.028716, 1490301718.031134, -0.061890, +0.966431, +0.216431, +12.283325, -5.767822, +7.629395
1490301718.031404, 1490301718.033816, -0.060974, +0.957092, +0.209106, +12.283325, -5.767822, +9.262085
1490301718.034085, 1490301718.036406, -0.060974, +0.957092, +0.209106, +11.993408, -4.516602, +9.262085
1490301718.036669, 1490301718.038966, -0.060974, +0.957092, +0.209106, +11.993408, -4.516602, +9.124756
1490301718.039228, 1490301718.041519, -0.060974, +0.964783, +0.212402, +11.901855, -3.799438, +9.124756
1490301718.041780, 1490301718.044077, -0.062256, +0.964783, +0.212402, +11.901855, -3.799438, +9.124756
1490301718.044337, 1490301718.046752, -0.062256, +0.964783, +0.212402, +11.856079, -2.731323, +9.841919
1490301718.047021, 1490301718.049433, -0.062256, +0.964783, +0.212402, +11.856079, -2.731323, +9.841919
1490301718.049701, 1490301718.052114, -0.060974, +0.983093, +0.218811, +11.917114, -1.571655, +10.177612
1490301718.052386, 1490301718.054852, -0.060974, +0.983093, +0.218811, +11.917114, -1.571655, +10.177612
1490301718.055122, 1490301718.057534, -0.060974, +0.983093, +0.218811, +12.039185, -0.747681, +10.711670
1490301718.057805, 1490301718.060221, -0.060974, +0.983093, +0.218811, +12.039185, -0.747681, +10.711670
1490301718.060602, 1490301718.063016, -0.062805, +0.988953, +0.238037, +12.542725, +0.503540, +11.077881
1490301718.063290, 1490301718.065721, -0.062805, +0.988953, +0.238037, +12.542725, +0.503540, +11.077881
1490301718.065993, 1490301718.068406, -0.062805, +0.988953, +0.238037, +12.634277, +1.190186, +11.489868
1490301718.068676, 1490301718.071091, -0.062805, +0.993164, +0.233276, +12.634277, +1.190186, +11.489868
1490301718.071363, 1490301718.073780, -0.057678, +0.993164, +0.233276, +12.664795, +1.571655, +12.390137
1490301718.074051, 1490301718.076473, -0.057678, +0.993164, +0.233276, +12.664795, +1.571655, +12.390137
1490301718.076746, 1490301718.079153, -0.057678, +0.993164, +0.233276, +12.847900, +1.678467, +12.588501
1490301718.079424, 1490301718.081842, -0.031311, +0.995728, +0.222839, +12.847900, +1.678467, +12.588501
1490301718.082113, 1490301718.084537, -0.031311, +0.995728, +0.222839, +12.313843, +0.915527, +12.832642
1490301718.084803, 1490301718.087093, -0.031311, +0.995728, +0.222839, +12.313843, +0.915527, +12.832642
1490301718.087357, 1490301718.089642, -0.031311, +0.995728, +0.222839, +13.824463, +0.717163, +13.580322
1490301718.089906, 1490301718.092195, -0.043945, +0.986023, +0.230896, +13.824463, +0.717163, +13.580322
1490301718.092459, 1490301718.094783, -0.043945, +0.986023, +0.230896, +13.824463, +0.717163, +13.626099
1490301718.095056, 1490301718.097478, -0.043945, +0.986023, +0.230896, +14.877319, +0.595093, +13.626099
1490301718.097751, 1490301718.100166, -0.043945, +0.940247, +0.255798, +14.877319, +0.595093, +15.090942
1490301718.100437, 1490301718.102856, -0.033325, +0.940247, +0.255798, +15.029907, +0.518799, +15.090942
1490301718.103130, 1490301718.105548, -0.033325, +0.940247, +0.255798, +15.029907, +0.518799, +15.609741
1490301718.105820, 1490301718.108235, -0.033325, +0.940247, +0.255798, +14.862061, -0.686646, +15.609741
1490301718.108506, 1490301718.110917, -0.027832, +0.943909, +0.243530, +14.862061, -0.686646, +19.515991
1490301718.111190, 1490301718.113597, -0.027832, +0.943909, +0.243530, +14.648438, -1.327515, +16.845703
1490301718.113868, 1490301718.116295, -0.027832, +0.943909, +0.243530, +14.648438, -1.327515, +16.845703
1490301718.116567, 1490301718.118978, -0.027832, +0.943909, +0.196655, +15.625000, -1.251221, +17.028809
1490301718.119249, 1490301718.121666, -0.023254, +0.964966, +0.217896, +15.625000, -1.251221, +17.028809
1490301718.121938, 1490301718.124352, -0.023254, +0.964966, +0.217896, +15.121460, -1.358032, +18.203735
1490301718.124676, 1490301718.127087, -0.023254, +0.964966, +0.217896, +15.121460, -1.358032, +18.203735
1490301718.127357, 1490301718.129774, -0.049438, +0.998108, +0.226135, +15.502930, -1.510620, +19.287109
1490301718.130046, 1490301718.132457, -0.049438, +0.998108, +0.226135, +15.502930, -1.510620, +19.287109
1490301718.132729, 1490301718.135123, -0.049438, +0.998108, +0.226135, +14.907837, -1.235962, +19.866943
1490301718.135386, 1490301718.137681, -0.049438, +0.998108, +0.226135, +14.907837, -1.235962, +19.866943
1490301718.137945, 1490301718.140233, -0.044312, +1.024109, +0.212952, +14.877319, -0.869751, +20.843506
1490301718.140498, 1490301718.142789, -0.044312, +1.024109, +0.212952, +14.877319, -0.869751, +20.843506
1490301718.143052, 1490301718.145462, -0.044312, +1.024109, +0.212952, +15.121460, -0.991821, +20.462036
1490301718.145737, 1490301718.148150, -0.044312, +1.024109, +0.212952, +15.121460, -0.991821, +20.462036
1490301718.148422, 1490301718.150840, -0.031494, +1.038757, +0.195007, +14.419556, -0.671387, +21.438599
1490301718.151113, 1490301718.153525, -0.031494, +1.038757, +0.195007, +14.419556, -0.671387, +21.438599
1490301718.153796, 1490301718.156251, -0.031494, +1.038757, +0.195007, +15.274048, -1.022339, +21.530151
1490301718.156524, 1490301718.158940, +0.000183, +1.031799, +0.207642, +15.274048, -1.022339, +21.530151
1490301718.159212, 1490301718.161621, +0.000183, +1.031799, +0.207642, +15.274048, -1.174927, +21.331787
1490301718.161891, 1490301718.164306, +0.000183, +1.031799, +0.207642, +15.472412, -1.174927, +21.331787
1490301718.164734, 1490301718.167154, +0.000183, +1.031799, +0.207642, +15.472412, -2.227783, +21.102905
1490301718.167424, 1490301718.169834, +0.013367, +1.003418, +0.209656, +15.090942, -2.227783, +21.102905
1490301718.170106, 1490301718.172524, +0.013367, +1.003418, +0.209656, +15.090942, -4.257202, +20.889282
1490301718.172797, 1490301718.175276, +0.013367, +1.003418, +0.209656, +15.060425, -4.257202, +20.889282
1490301718.175548, 1490301718.177963, +0.013367, +1.007812, +0.248840, +15.060425, -4.257202, +20.935059
1490301718.178233, 1490301718.180650, +0.053284, +1.007812, +0.248840, +15.518188, -5.783081, +20.935059
1490301718.180920, 1490301718.183332, +0.053284, +1.007812, +0.248840, +15.518188, -5.783081, +20.935059
1490301718.183604, 1490301718.185991, +0.053284, +1.007812, +0.248840, +16.830444, -8.407593, +20.935059
1490301718.186257, 1490301718.188553, +0.015564, +1.010010, +0.274292, +16.830444, -8.407593, +20.935059
1490301718.188819, 1490301718.191108, +0.015564, +1.010010, +0.274292, +17.333984, -11.383057, +21.286011
1490301718.191375, 1490301718.193667, +0.015564, +1.010010, +0.274292, +17.333984, -11.383057, +21.286011
1490301718.193932, 1490301718.196229, +0.015564, +1.010010, +0.274292, +18.218994, -12.603760, +22.125244
1490301718.196495, 1490301718.198785, +0.022339, +0.995361, +0.273376, +18.218994, -12.603760, +22.125244
1490301718.199051, 1490301718.201341, +0.022339, +0.995361, +0.273376, +18.829346, -14.877319, +22.354126
1490301718.201606, 1490301718.203891, +0.022339, +0.995361, +0.273376, +18.829346, -14.877319, +22.354126
1490301718.204158, 1490301718.206575, +0.022339, +0.995361, +0.320251, +20.523071, -15.640259, +23.635864
1490301718.206849, 1490301718.209267, -0.010620, +0.971741, +0.281250, +20.523071, -15.640259, +23.635864
1490301718.209540, 1490301718.211955, -0.010620, +0.971741, +0.281250, +21.255493, -15.075684, +24.291992
1490301718.212232, 1490301718.214668, -0.010620, +0.971741, +0.281250, +21.255493, -15.075684, +24.291992
1490301718.214943, 1490301718.217354, -0.010620, +0.981262, +0.264404, +21.270752, -14.480591, +26.611328
1490301718.217628, 1490301718.220041, -0.014832, +0.981262, +0.264404, +21.270752, -14.480591, +26.611328
1490301718.220315, 1490301718.222735, -0.014832, +0.981262, +0.264404, +21.209717, -13.916016, +26.138306
1490301718.223010, 1490301718.225438, -0.014832, +0.981262, +0.264404, +21.209717, -13.916016, +26.138306
1490301718.225713, 1490301718.228129, +0.002930, +1.012207, +0.243896, +21.209717, -11.886597, +27.328491
1490301718.228403, 1490301718.230822, +0.002930, +1.012207, +0.243896, +21.881104, -11.886597, +27.328491
1490301718.231097, 1490301718.233515, +0.002930, +1.012207, +0.243896, +21.881104, -11.596680, +27.862549
1490301718.233790, 1490301718.236254, +0.002930, +1.059082, +0.181091, +21.667480, -11.596680, +27.862549
1490301718.236527, 1490301718.238947, +0.023254, +1.039673, +0.181091, +21.667480, -15.502930, +27.877808
1490301718.239222, 1490301718.241631, +0.023254, +1.039673, +0.181091, +21.789551, -12.008667, +27.877808
1490301718.241907, 1490301718.244325, +0.023254, +1.039673, +0.181091, +21.789551, -12.008667, +29.235840
1490301718.244638, 1490301718.246927, +0.026733, +1.085999, +0.150513, +21.392822, -12.557983, +29.235840
1490301718.247192, 1490301718.249476, +0.026733, +1.085999, +0.150513, +21.392822, -12.557983, +29.235840
1490301718.249743, 1490301718.252040, +0.026733, +1.085999, +0.150513, +21.041870, -13.763428, +28.427124
1490301718.252306, 1490301718.254653, +0.026733, +1.085999, +0.150513, +21.041870, -13.763428, +28.427124
1490301718.254926, 1490301718.257350, +0.037720, +1.118225, +0.127258, +21.636963, -14.633179, +28.854370
1490301718.257623, 1490301718.260039, +0.037720, +1.118225, +0.127258, +21.636963, -14.633179, +28.854370
1490301718.260313, 1490301718.262726, +0.037720, +1.118225, +0.127258, +20.980835, -16.021729, +28.060913
1490301718.263001, 1490301718.265430, +0.037720, +1.165100, +0.112793, +20.980835, -16.021729, +28.060913
1490301718.265804, 1490301718.268214, +0.049622, +1.130676, +0.112793, +22.338867, -16.006470, +27.465820
1490301718.268489, 1490301718.270902, +0.049622, +1.130676, +0.112793, +22.338867, -16.006470, +27.465820
1490301718.271177, 1490301718.273593, +0.049622, +1.130676, +0.112793, +21.942139, -16.204834, +28.579712
1490301718.273867, 1490301718.276289, +0.027649, +1.114014, +0.137329, +21.942139, -16.204834, +28.579712
1490301718.276563, 1490301718.278982, +0.027649, +1.114014, +0.137329, +21.926880, -16.433716, +28.579712
1490301718.279255, 1490301718.281671, +0.027649, +1.114014, +0.137329, +21.926880, -16.433716, +28.579712
1490301718.281944, 1490301718.284359, +0.027649, +1.114014, +0.137329, +22.979736, -15.167236, +29.052734
1490301718.284684, 1490301718.287105, +0.047424, +1.101562, +0.159668, +22.979736, -15.167236, +29.052734
1490301718.287378, 1490301718.289793, +0.047424, +1.101562, +0.159668, +22.659302, -14.892578, +28.961182
1490301718.290067, 1490301718.292484, +0.047424, +1.101562, +0.159668, +22.659302, -14.892578, +28.961182
1490301718.292759, 1490301718.295190, +0.047424, +1.086548, +0.204163, +23.559570, -14.343262, +29.006958
1490301718.295458, 1490301718.297754, +0.059143, +1.086548, +0.204163, +23.559570, -14.343262, +29.006958
1490301718.298021, 1490301718.300312, +0.059143, +1.086548, +0.204163, +23.284912, -14.251709, +29.251099
1490301718.300579, 1490301718.302866, +0.059143, +1.086548, +0.204163, +23.284912, -14.251709, +29.251099
1490301718.303133, 1490301718.305493, +0.062439, +1.074097, +0.212036, +23.284912, -14.251709, +29.525757
1490301718.305768, 1490301718.308187, +0.062439, +1.074097, +0.212036, +24.124146, -14.038086, +29.525757
1490301718.308461, 1490301718.310876, +0.062439, +1.074097, +0.212036, +24.124146, -14.038086, +29.861450
1490301718.311149, 1490301718.313561, +0.062439, +1.074097, +0.212036, +24.063110, -14.129639, +29.861450
1490301718.313835, 1490301718.316260, +0.071045, +1.090759, +0.219543, +24.063110, -14.129639, +30.197144
1490301718.316533, 1490301718.318945, +0.071045, +1.090759, +0.219543, +25.161743, -14.282227, +30.197144
1490301718.319219, 1490301718.321639, +0.071045, +1.090759, +0.219543, +25.161743, -14.282227, +31.524658
1490301718.321912, 1490301718.324327, +0.071045, +1.096252, +0.203796, +25.894165, -15.640259, +31.524658
1490301718.324658, 1490301718.327074, +0.052002, +1.096252, +0.203796, +25.894165, -15.640259, +31.524658
1490301718.327348, 1490301718.329768, +0.052002, +1.096252, +0.203796, +26.779175, -16.677856, +31.555176
1490301718.330043, 1490301718.332452, +0.052002, +1.096252, +0.203796, +26.779175, -16.677856, +31.555176
1490301718.332726, 1490301718.335149, +0.032227, +1.094971, +0.217529, +26.962280, -17.288208, +33.020020
1490301718.335423, 1490301718.337845, +0.032227, +1.094971, +0.217529, +26.962280, -17.288208, +33.020020
1490301718.338119, 1490301718.340531, +0.032227, +1.094971, +0.217529, +28.472900, -17.074585, +33.065796
1490301718.340803, 1490301718.343221, +0.032227, +1.094971, +0.229614, +28.472900, -17.074585, +33.065796
1490301718.343495, 1490301718.345851, +0.021057, +1.128662, +0.229614, +29.037476, -16.296387, +35.552979
1490301718.346119, 1490301718.348411, +0.021057, +1.128662, +0.229614, +29.037476, -16.296387, +35.552979
1490301718.348680, 1490301718.350971, +0.021057, +1.128662, +0.229614, +29.693604, -15.487671, +36.544800
1490301718.351239, 1490301718.353525, -0.025818, +1.186340, +0.267517, +29.693604, -15.487671, +36.544800
1490301718.353791, 1490301718.356187, -0.024719, +1.186340, +0.267517, +31.112671, -13.656616, +38.345337
1490301718.356461, 1490301718.358882, -0.024719, +1.186340, +0.267517, +31.112671, -13.656616, +38.345337
1490301718.359155, 1490301718.361573, -0.024719, +1.186340, +0.267517, +31.661987, -13.153076, +39.276123
1490301718.361847, 1490301718.364270, +0.024719, +1.204651, +0.312012, +31.661987, -13.153076, +39.276123
1490301718.364553, 1490301718.366972, +0.024719, +1.204651, +0.312012, +31.982422, -13.793945, +40.206909
1490301718.367248, 1490301718.369667, +0.024719, +1.204651, +0.312012, +31.982422, -13.793945, +40.206909
1490301718.370051, 1490301718.372473, +0.024719, +1.204651, +0.220459, +30.532837, -17.288208, +41.595459
1490301718.372747, 1490301718.375166, +0.069031, +1.180847, +0.220459, +30.532837, -17.288208, +41.595459
1490301718.375441, 1490301718.377855, +0.069031, +1.180847, +0.220459, +30.532837, -21.377563, +41.320801
1490301718.378129, 1490301718.380550, +0.069031, +1.180847, +0.220459, +31.204224, -21.377563, +41.320801
1490301718.380827, 1490301718.383240, +0.050171, +1.169312, +0.098145, +31.204224, -23.925781, +43.762207
1490301718.383514, 1490301718.385950, +0.050171, +1.169312, +0.098145, +31.814575, -23.925781, +43.762207
1490301718.386223, 1490301718.388638, +0.050171, +1.169312, +0.098145, +31.814575, -23.925781, +45.242310
1490301718.388911, 1490301718.391327, +0.050171, +1.169312, +0.098145, +32.623291, -26.275635, +45.242310
1490301718.391600, 1490301718.394025, +0.005676, +1.160889, +0.071045, +32.623291, -26.275635, +47.805786
1490301718.394300, 1490301718.396612, +0.005676, +1.160889, +0.071045, +33.462524, -26.580811, +47.805786
1490301718.396880, 1490301718.399168, +0.005676, +1.160889, +0.071045, +33.462524, -26.580811, +47.805786
1490301718.399436, 1490301718.401730, +0.005676, +1.207764, +0.103638, +33.782959, -26.016235, +49.163818
1490301718.401996, 1490301718.404286, -0.031494, +1.181030, +0.103638, +33.782959, -26.016235, +49.163818
1490301718.404559, 1490301718.406974, -0.031494, +1.181030, +0.103638, +34.301758, -24.322510, +51.635742
1490301718.407249, 1490301718.409664, -0.031494, +1.181030, +0.103638, +34.301758, -24.322510, +51.635742
1490301718.409938, 1490301718.412353, -0.074341, +1.188538, +0.120300, +33.218384, -22.735596, +54.641724
1490301718.412626, 1490301718.415061, -0.074341, +1.188538, +0.120300, +33.218384, -22.735596, +54.641724
1490301718.415334, 1490301718.417747, -0.074341, +1.188538, +0.120300, +33.493042, -21.163940, +55.160522
1490301718.418022, 1490301718.420438, -0.074341, +1.188538, +0.120300, +33.493042, -21.163940, +55.160522
1490301718.420713, 1490301718.423136, -0.044128, +1.217834, +0.110596, +33.584595, -18.997192, +57.037354
1490301718.423410, 1490301718.425837, -0.044128, +1.217834, +0.110596, +33.584595, -18.997192, +57.037354
1490301718.426110, 1490301718.428535, -0.044128, +1.217834, +0.110596, +33.309937, -18.508911, +58.059692
1490301718.428811, 1490301718.431221, -0.044128, +1.242554, +0.094849, +33.309937, -18.508911, +58.059692
1490301718.431494, 1490301718.433907, -0.021423, +1.242554, +0.094849, +34.561157, -18.218994, +58.761597
1490301718.434181, 1490301718.436550, -0.021423, +1.242554, +0.094849, +34.561157, -18.218994, +58.761597
1490301718.436816, 1490301718.439104, -0.021423, +1.242554, +0.094849, +34.332275, -18.478394, +60.226440
1490301718.439371, 1490301718.441654, -0.044678, +1.234680, +0.129822, +34.332275, -18.478394, +60.226440
1490301718.441919, 1490301718.444211, -0.044678, +1.234680, +0.129822, +38.238525, -18.096924, +60.470581
1490301718.444476, 1490301718.446888, -0.044678, +1.234680, +0.129822, +35.842896, -18.096924, +60.470581
1490301718.447163, 1490301718.449583, -0.044678, +1.234680, +0.129822, +35.842896, -18.096924, +61.508179
1490301718.449856, 1490301718.452273, -0.051270, +1.223694, +0.172119, +35.797119, -18.020630, +61.508179
1490301718.452547, 1490301718.454967, -0.051270, +1.223694, +0.172119, +35.797119, -18.020630, +61.477661
1490301718.455243, 1490301718.457666, -0.051270, +1.223694, +0.172119, +36.529541, -18.905640, +61.477661
1490301718.457940, 1490301718.460355, -0.051270, +1.209229, +0.238953, +36.529541, -18.905640, +63.323975
1490301718.460628, 1490301718.463041, -0.051636, +1.209229, +0.238953, +36.254883, -19.592285, +63.323975
1490301718.463316, 1490301718.465746, -0.051636, +1.209229, +0.238953, +36.254883, -19.592285, +63.323975
1490301718.466019, 1490301718.468437, -0.051636, +1.209229, +0.238953, +36.392212, -20.874023, +63.903809
1490301718.468711, 1490301718.471133, -0.051819, +1.187805, +0.289856, +36.392212, -20.874023, +63.903809
1490301718.471409, 1490301718.473827, -0.051819, +1.187805, +0.289856, +35.827637, -22.857666, +66.223145
1490301718.474209, 1490301718.476524, -0.051819, +1.187805, +0.289856, +35.827637, -22.857666, +66.223145
1490301718.476790, 1490301718.479085, -0.051819, +1.187805, +0.336731, +35.614014, -25.802612, +66.680908
1490301718.479353, 1490301718.481645, -0.024170, +1.160339, +0.352661, +35.614014, -25.802612, +66.680908
1490301718.481911, 1490301718.484204, -0.024170, +1.160339, +0.352661, +35.568237, -28.625488, +69.305420
1490301718.484460, 1490301718.486876, -0.024170, +1.160339, +0.352661, +35.568237, -28.625488, +69.305420
1490301718.487149, 1490301718.489560, -0.024170, +1.150085, +0.385986, +35.003662, -33.340454, +71.228027
1490301718.489834, 1490301718.492256, -0.007507, +1.150085, +0.385986, +35.003662, -33.340454, +71.228027
1490301718.492529, 1490301718.494950, -0.007507, +1.150085, +0.385986, +35.446167, -37.612915, +74.096680
1490301718.495227, 1490301718.497641, -0.007507, +1.150085, +0.385986, +35.446167, -37.612915, +74.096680
1490301718.497916, 1490301718.500329, +0.013550, +1.151367, +0.394226, +34.622192, -42.648315, +76.828003
1490301718.500602, 1490301718.503021, +0.013550, +1.151367, +0.394226, +34.622192, -42.648315, +76.828003
1490301718.503295, 1490301718.505722, +0.013550, +1.151367, +0.394226, +35.186768, -46.813965, +79.544067
1490301718.505999, 1490301718.508417, +0.013550, +1.151367, +0.347351, +35.186768, -46.813965, +79.544067
1490301718.508692, 1490301718.511108, +0.019226, +1.183960, +0.362183, +34.927368, -50.842285, +83.465576
1490301718.511381, 1490301718.513798, +0.019226, +1.183960, +0.362183, +34.927368, -50.842285, +83.465576
1490301718.514072, 1490301718.516398, +0.019226, +1.183960, +0.362183, +38.833618, -55.130005, +85.418701
1490301718.516664, 1490301718.518949, +0.066101, +1.234314, +0.303406, +35.415649, -55.130005, +85.418701
1490301718.519216, 1490301718.521510, +0.079834, +1.234314, +0.303406, +35.415649, -59.036255, +88.226318
1490301718.521777, 1490301718.524066, +0.079834, +1.234314, +0.303406, +34.866333, -59.036255, +88.226318
1490301718.524331, 1490301718.526749, +0.079834, +1.234314, +0.303406, +34.866333, -59.036255, +89.859009
1490301718.527024, 1490301718.529437, +0.124512, +1.318359, +0.269897, +34.194946, -64.834595, +89.859009
1490301718.529711, 1490301718.532121, +0.124512, +1.318359, +0.269897, +34.194946, -64.834595, +89.859009
1490301718.532395, 1490301718.534860, +0.124512, +1.318359, +0.269897, +34.210205, -68.588257, +90.621948
1490301718.535134, 1490301718.537550, +0.124512, +1.318359, +0.269897, +34.210205, -68.588257, +90.621948
1490301718.537823, 1490301718.540239, +0.057678, +1.372192, +0.258362, +32.592773, -72.357178, +93.078613
1490301718.540515, 1490301718.542932, +0.057678, +1.372192, +0.258362, +32.592773, -72.357178, +93.078613
1490301718.543206, 1490301718.545662, +0.057678, +1.372192, +0.258362, +31.250000, -74.035645, +94.299316
1490301718.545935, 1490301718.548355, -0.036072, +1.367249, +0.248657, +31.250000, -74.035645, +94.299316
1490301718.548629, 1490301718.551050, -0.006042, +1.367249, +0.248657, +28.793335, -73.196411, +97.091675
1490301718.551325, 1490301718.553737, -0.006042, +1.367249, +0.248657, +28.793335, -73.196411, +97.091675
1490301718.554012, 1490301718.556439, -0.006042, +1.367249, +0.248657, +24.795532, -70.617676, +97.915649
1490301718.556714, 1490301718.559125, -0.018311, +1.243103, +0.264221, +24.795532, -70.617676, +97.915649
1490301718.559399, 1490301718.561817, -0.018311, +1.243103, +0.264221, +21.865845, -67.352295, +99.288940
1490301718.562090, 1490301718.564520, -0.018311, +1.243103, +0.264221, +21.865845, -67.352295, +99.288940
1490301718.564788, 1490301718.567079, -0.018311, +1.243103, +0.242065, +19.378662, -66.741943, +99.945068
1490301718.567346, 1490301718.569636, +0.059509, +1.177368, +0.242065, +19.378662, -66.741943, +99.945068
1490301718.569902, 1490301718.572198, +0.059509, +1.177368, +0.242065, +18.020630, -67.138672, +100.830078
1490301718.572467, 1490301718.574763, +0.059509, +1.177368, +0.242065, +18.020630, -67.138672, +100.830078
1490301718.575144, 1490301718.577438, +0.106384, +1.169312, +0.257446, +16.296387, -68.984985, +100.982666
1490301718.577705, 1490301718.579991, +0.130371, +1.169312, +0.257446, +16.296387, -68.984985, +100.982666
1490301718.580257, 1490301718.582544, +0.130371, +1.169312, +0.257446, +16.296387, -72.891235, +101.608276
1490301718.582812, 1490301718.585161, +0.130371, +1.169312, +0.257446, +17.211914, -71.243286, +101.608276
1490301718.585437, 1490301718.587847, +0.095947, +1.214172, +0.248657, +17.211914, -71.243286, +101.501465
1490301718.588121, 1490301718.590540, +0.095947, +1.214172, +0.248657, +17.395020, -76.004028, +101.501465
1490301718.590815, 1490301718.593236, +0.095947, +1.214172, +0.248657, +17.395020, -76.004028, +101.501465
1490301718.593512, 1490301718.595932, +0.095947, +1.214172, +0.248657, +19.851685, -78.186035, +99.472046
1490301718.596206, 1490301718.598628, +0.003113, +1.180481, +0.266052, +19.851685, -78.186035, +99.472046
1490301718.598904, 1490301718.601315, +0.003113, +1.180481, +0.266052, +20.004272, -79.528809, +97.839355
1490301718.601589, 1490301718.604004, +0.003113, +1.180481, +0.266052, +20.004272, -79.528809, +97.839355
1490301718.604278, 1490301718.606708, -0.043762, +1.226440, +0.235291, +18.264771, -83.633423, +96.694946
1490301718.606984, 1490301718.609402, -0.000549, +1.226440, +0.235291, +18.264771, -83.633423, +96.694946
1490301718.609676, 1490301718.612098, -0.000549, +1.226440, +0.235291, +22.155762, -84.930420, +94.879150
1490301718.612371, 1490301718.614833, -0.000549, +1.226440, +0.235291, +22.155762, -84.930420, +94.879150
1490301718.615109, 1490301718.617520, +0.047058, +1.091125, +0.193726, +24.200439, -85.418701, +92.056274
1490301718.617794, 1490301718.620214, +0.047058, +1.091125, +0.193726, +24.200439, -85.418701, +92.056274
1490301718.620490, 1490301718.622906, +0.047058, +1.091125, +0.193726, +24.078369, -84.579468, +88.729858
1490301718.623180, 1490301718.625577, +0.047058, +1.091125, +0.232910, +24.078369, -84.579468, +88.729858
1490301718.625844, 1490301718.628134, +0.101074, +1.043152, +0.232910, +24.078369, -85.128784, +86.380005
1490301718.628402, 1490301718.630687, +0.101074, +1.043152, +0.232910, +24.078369, -85.128784, +86.380005
1490301718.630954, 1490301718.633238, +0.101074, +1.043152, +0.232910, +24.383545, -83.938599, +84.304810
1490301718.633505, 1490301718.635883, -0.039551, +1.016235, +0.223755, +24.383545, -83.938599, +84.304810
1490301718.636158, 1490301718.638572, -0.040649, +1.016235, +0.223755, +25.070190, -82.244873, +79.956055
1490301718.638846, 1490301718.641290, -0.040649, +1.016235, +0.223755, +25.070190, -82.244873, +79.956055
1490301718.641565, 1490301718.643979, -0.040649, +1.016235, +0.223755, +25.070190, -81.207275, +75.332642
1490301718.644253, 1490301718.646683, -0.122314, +0.951233, +0.141174, +24.688721, -81.207275, +75.332642
1490301718.646957, 1490301718.649379, -0.122314, +0.951233, +0.141174, +24.688721, -78.033447, +69.808960
1490301718.649654, 1490301718.652070, -0.122314, +0.951233, +0.141174, +25.497437, -78.033447, +69.808960
1490301718.652345, 1490301718.654760, -0.122314, +0.951233, +0.108582, +25.497437, -73.974609, +64.071655
1490301718.655036, 1490301718.657459, -0.091553, +0.826721, +0.108582, +24.902344, -73.974609, +64.071655
1490301718.657735, 1490301718.660152, -0.091553, +0.826721, +0.108582, +24.902344, -70.068359, +59.082031
1490301718.660428, 1490301718.662847, -0.091553, +0.826721, +0.108582, +24.337769, -67.611694, +59.082031
1490301718.663122, 1490301718.665549, -0.062805, +0.669800, +0.067749, +24.337769, -67.611694, +54.290771
1490301718.665824, 1490301718.668245, -0.062805, +0.669800, +0.067749, +23.651123, -64.727783, +54.290771
1490301718.668521, 1490301718.670942, -0.062805, +0.669800, +0.067749, +23.651123, -64.727783, +47.866821
1490301718.671216, 1490301718.673636, -0.062805, +0.669800, +0.067749, +24.078369, -64.086914, +47.866821
1490301718.673909, 1490301718.676248, -0.085327, +0.555176, -0.033691, +24.078369, -64.086914, +40.054321
1490301718.676516, 1490301718.678813, -0.085327, +0.555176, -0.033691, +23.605347, -60.455322, +40.206909
1490301718.679186, 1490301718.681477, -0.085327, +0.555176, -0.033691, +23.605347, -60.455322, +40.206909
1490301718.681743, 1490301718.684042, -0.085327, +0.602051, -0.058411, +21.041870, -54.016113, +36.300659
1490301718.684308, 1490301718.686604, +0.081665, +0.605530, -0.058411, +21.041870, -54.016113, +36.300659
1490301718.686871, 1490301718.689155, +0.081665, +0.605530, -0.058411, +18.234253, -43.945312, +31.814575
1490301718.689426, 1490301718.691714, +0.081665, +0.605530, -0.058411, +18.234253, -43.945312, +31.814575
1490301718.691982, 1490301718.694267, +0.081665, +0.636475, -0.008789, +15.258789, -30.715942, +25.924683
1490301718.694550, 1490301718.696957, +0.062622, +0.636475, -0.008789, +15.258789, -30.715942, +25.924683
1490301718.697231, 1490301718.699652, +0.062622, +0.636475, -0.008789, +13.748169, -15.655518, +17.501831
1490301718.699928, 1490301718.702340, +0.062622, +0.636475, -0.008789, +13.748169, -15.655518, +17.501831
1490301718.702615, 1490301718.705046, -0.017395, +0.535400, +0.011719, +11.428833, -1.083374, +8.010864
1490301718.705316, 1490301718.707732, -0.017395, +0.535400, +0.011719, +11.428833, -1.083374, +8.010864
1490301718.708002, 1490301718.710408, -0.017395, +0.535400, +0.011719, +11.428833, +14.297485, -0.732422
1490301718.710681, 1490301718.713103, -0.017395, +0.535400, -0.002197, +9.063721, +14.297485, -0.732422
1490301718.713373, 1490301718.715839, -0.108948, +0.481567, -0.002197, +9.063721, +30.502319, -8.666992
1490301718.716110, 1490301718.718520, -0.108948, +0.481567, -0.002197, +7.217407, +30.502319, -8.666992
1490301718.718790, 1490301718.721204, -0.108948, +0.481567, -0.002197, +7.217407, +46.127319, -14.953613
1490301718.721478, 1490301718.723896, -0.083496, +0.448792, -0.030762, +3.906250, +46.081543, -14.953613
1490301718.724170, 1490301718.726510, -0.083496, +0.448792, -0.030762, +3.906250, +46.081543, -21.255493
1490301718.726778, 1490301718.729069, -0.083496, +0.448792, -0.030762, +1.846313, +59.616089, -21.255493
1490301718.729334, 1490301718.731622, -0.083496, +0.448792, -0.030762, +1.846313, +59.616089, -21.255493
1490301718.731886, 1490301718.734184, -0.019226, +0.422607, -0.021606, -1.205444, +70.220947, -26.657104
1490301718.734460, 1490301718.736875, -0.019226, +0.422607, -0.021606, -1.205444, +70.220947, -26.657104
1490301718.737146, 1490301718.739560, -0.019226, +0.422607, -0.021606, -3.814697, +78.567505, -31.616211
1490301718.739833, 1490301718.742248, -0.019226, +0.422607, +0.025269, -3.814697, +78.567505, -31.616211
1490301718.742520, 1490301718.744948, +0.022705, +0.404114, +0.016663, -6.042480, +82.931519, -37.002563
1490301718.745221, 1490301718.747643, +0.022705, +0.404114, +0.016663, -6.042480, +82.931519, -37.002563
1490301718.747913, 1490301718.750324, +0.022705, +0.404114, +0.016663, -7.446289, +84.503174, -43.090820
1490301718.750595, 1490301718.753008, -0.027100, +0.371521, +0.048523, -7.446289, +84.503174, -43.090820
1490301718.753280, 1490301718.755706, -0.027100, +0.371521, +0.048523, -6.683350, +86.791992, -52.124023
1490301718.755978, 1490301718.758389, -0.027100, +0.371521, +0.048523, -6.683350, +86.791992, -52.124023
1490301718.758660, 1490301718.761072, -0.027100, +0.371521, +0.048523, -7.034302, +90.591431, -62.667847
1490301718.761345, 1490301718.763768, -0.109497, +0.352478, +0.044861, -7.034302, +90.591431, -62.667847
1490301718.764041, 1490301718.766364, -0.109497, +0.352478, +0.044861, -6.927490, +92.498779, -73.226929
1490301718.766629, 1490301718.768925, -0.109497, +0.352478, +0.044861, -6.927490, +92.498779, -73.226929
1490301718.769190, 1490301718.771478, -0.109497, +0.352478, +0.040466, -6.744385, +91.583252, -82.748413
1490301718.771743, 1490301718.774034, -0.106750, +0.364197, +0.040466, -6.744385, +91.583252, -82.748413
1490301718.774300, 1490301718.776735, -0.106750, +0.364197, +0.040466, -6.744385, +90.133667, -90.621948
1490301718.777008, 1490301718.779424, -0.106750, +0.364197, +0.040466, -6.820679, +90.133667, -90.621948
1490301718.779697, 1490301718.782109, -0.153625, +0.405945, +0.050903, -6.820679, +86.227417, -99.884033
1490301718.782489, 1490301718.784921, -0.144287, +0.405945, +0.050903, -6.652832, +88.745117, -99.884033
1490301718.785193, 1490301718.787609, -0.144287, +0.405945, +0.050903, -6.652832, +88.745117, -108.779907
1490301718.787882, 1490301718.790300, -0.144287, +0.405945, +0.050903, -6.195068, +86.807251, -108.779907
1490301718.790573, 1490301718.792986, -0.216431, +0.527710, +0.048523, -6.195068, +86.807251, -117.843628
1490301718.793258, 1490301718.795700, -0.216431, +0.527710, +0.048523, -4.165649, +83.709717, -117.843628
1490301718.795972, 1490301718.798378, -0.216431, +0.527710, +0.048523, -4.165649, +83.709717, -126.373291
1490301718.798650, 1490301718.801048, -0.216431, +0.574585, +0.017212, -1.754761, +79.788208, -126.373291
1490301718.801320, 1490301718.803722, -0.257080, +0.584290, +0.017212, -1.754761, +79.788208, -134.185791
1490301718.803994, 1490301718.806541, -0.257080, +0.584290, +0.017212, +0.411987, +78.445435, -134.796143
1490301718.806815, 1490301718.809211, -0.257080, +0.584290, +0.017212, +0.411987, +78.445435, -134.796143
1490301718.809482, 1490301718.811885, -0.285645, +0.621094, -0.013000, +1.205444, +78.704834, -141.494751
1490301718.812158, 1490301718.814563, -0.285645, +0.621094, -0.013000, +1.205444, +78.704834, -141.494751
1490301718.814828, 1490301718.817199, -0.285645, +0.621094, -0.013000, +2.334595, +80.322266, -147.018433
1490301718.817466, 1490301718.819763, -0.285645, +0.621094, -0.013000, +2.334595, +80.322266, -147.018433
1490301718.820027, 1490301718.822315, -0.282349, +0.659729, -0.031677, +2.456665, +84.197998, -152.786255
1490301718.822580, 1490301718.824900, -0.282349, +0.659729, -0.031677, +2.456665, +84.197998, -152.786255
1490301718.825250, 1490301718.827670, -0.282349, +0.659729, -0.031677, +1.708984, +88.699341, -157.058716
1490301718.827941, 1490301718.830347, -0.282349, +0.659729, -0.039368, +1.708984, +88.699341, -157.058716
1490301718.830617, 1490301718.833025, -0.214050, +0.700745, -0.039368, +1.464844, +92.453003, -161.361694
1490301718.833296, 1490301718.835726, -0.214050, +0.700745, -0.039368, +1.464844, +92.453003, -161.361694
1490301718.836001, 1490301718.838408, -0.214050, +0.700745, -0.039368, +0.976562, +93.063354, -165.969849
1490301718.838679, 1490301718.841092, -0.125610, +0.739563, -0.023254, +0.976562, +93.063354, -165.969849
1490301718.841364, 1490301718.843767, -0.125610, +0.739563, -0.023254, +1.571655, +92.773438, -170.333862
1490301718.844039, 1490301718.846452, -0.125610, +0.739563, -0.023254, +1.571655, +92.773438, -170.333862
1490301718.846724, 1490301718.849131, -0.125610, +0.739563, -0.023254, +3.250122, +92.468262, -177.841187
1490301718.849404, 1490301718.851800, -0.116638, +0.805481, +0.001648, +3.250122, +92.468262, -177.841187
1490301718.852074, 1490301718.854485, -0.116638, +0.805481, +0.001648, +7.156372, +90.896606, -184.020996
1490301718.854759, 1490301718.857137, -0.116638, +0.805481, +0.001648, +4.562378, +90.896606, -184.020996
1490301718.857408, 1490301718.859784, -0.116638, +0.846680, +0.038086, +4.562378, +90.896606, -190.612793
1490301718.860055, 1490301718.862436, -0.177063, +0.846680, +0.038086, +6.591797, +89.889526, -190.612793
1490301718.862705, 1490301718.865076, -0.177063, +0.846680, +0.038086, +6.591797, +89.889526, -196.395874
1490301718.865343, 1490301718.867635, -0.177063, +0.846680, +0.038086, +6.942749, +90.637207, -196.395874
1490301718.867901, 1490301718.870194, -0.251404, +0.901245, +0.038452, +6.942749, +90.637207, -196.395874
1490301718.870458, 1490301718.872749, -0.251404, +0.901245, +0.038452, +6.927490, +92.941284, -203.781128
1490301718.873015, 1490301718.875361, -0.251404, +0.901245, +0.038452, +6.927490, +92.941284, -203.781128
1490301718.875635, 1490301718.878044, -0.251404, +0.901245, +0.038452, +7.141113, +93.292236, -209.548950
1490301718.878315, 1490301718.880724, -0.262756, +0.956543, +0.073242, +7.141113, +93.292236, -209.548950
1490301718.880996, 1490301718.883411, -0.262756, +0.956543, +0.073242, +7.415771, +94.635010, -215.530396
1490301718.883683, 1490301718.886111, -0.262756, +0.956543, +0.073242, +7.415771, +94.635010, -215.530396
1490301718.886493, 1490301718.888906, -0.262756, +1.051208, +0.108948, +6.866455, +97.503662, -220.123291
1490301718.889179, 1490301718.891591, -0.264954, +1.051208, +0.108948, +6.866455, +97.503662, -220.123291
1490301718.891864, 1490301718.894279, -0.264954, +1.051208, +0.108948, +6.820679, +102.447510, -224.517822
1490301718.894558, 1490301718.896981, -0.264954, +1.051208, +0.108948, +6.820679, +102.447510, -224.517822
1490301718.897252, 1490301718.899662, -0.221008, +1.130859, +0.168823, +5.828857, +108.367920, -226.791382
1490301718.899933, 1490301718.902343, -0.221008, +1.130859, +0.168823, +5.828857, +108.367920, -226.791382
1490301718.902612, 1490301718.905046, -0.221008, +1.130859, +0.168823, +5.187988, +114.791870, -229.568481
1490301718.905316, 1490301718.907733, -0.221008, +1.130859, +0.215698, +5.187988, +114.791870, -229.568481
1490301718.908005, 1490301718.910419, -0.197021, +1.209412, +0.211487, +4.302979, +121.429443, -231.964111
1490301718.910689, 1490301718.913112, -0.197021, +1.209412, +0.211487, +4.302979, +121.429443, -231.964111
1490301718.913384, 1490301718.915770, -0.197021, +1.209412, +0.211487, +3.738403, +129.226685, -234.649658
1490301718.916033, 1490301718.918328, -0.150146, +1.305176, +0.258728, +3.738403, +129.226685, -234.649658
1490301718.918592, 1490301718.920879, -0.175232, +1.305176, +0.258728, +3.738403, +135.696411, -236.236572
1490301718.921142, 1490301718.923427, -0.175232, +1.305176, +0.258728, +2.792358, +135.696411, -236.236572
1490301718.923690, 1490301718.926100, -0.175232, +1.305176, +0.258728, +2.792358, +135.696411, -237.869263
1490301718.926374, 1490301718.928785, -0.138794, +1.437561, +0.302490, +3.829956, +140.792847, -237.869263
1490301718.929056, 1490301718.931468, -0.138794, +1.437561, +0.302490, +3.829956, +140.792847, -239.807129
1490301718.931739, 1490301718.934153, -0.138794, +1.437561, +0.302490, +3.845215, +144.821167, -239.807129
1490301718.934435, 1490301718.936851, -0.138794, +1.437561, +0.302490, +3.845215, +144.821167, -239.807129
1490301718.937122, 1490301718.939543, -0.123779, +1.553833, +0.342957, +4.653931, +147.399902, -241.012573
1490301718.939814, 1490301718.942227, -0.123779, +1.553833, +0.342957, +4.653931, +147.399902, -241.012573
1490301718.942501, 1490301718.944912, -0.123779, +1.553833, +0.342957, +5.661011, +148.895264, -243.484497
1490301718.945177, 1490301718.947471, -0.123779, +1.640442, +0.392578, +5.661011, +148.895264, -243.484497
1490301718.947737, 1490301718.950023, -0.095764, +1.640442, +0.392578, +6.286621, +148.651123, -244.766235
1490301718.950288, 1490301718.952575, -0.095764, +1.640442, +0.392578, +6.286621, +148.651123, -244.766235
1490301718.952838, 1490301718.955169, -0.095764, +1.640442, +0.392578, +7.766724, +146.560669, -247.009277
1490301718.955440, 1490301718.957857, -0.049805, +1.712402, +0.411987, +7.766724, +146.560669, -247.009277
1490301718.958128, 1490301718.960551, -0.049805, +1.712402, +0.411987, +8.193970, +142.349243, -248.748779
1490301718.960822, 1490301718.963237, -0.049805, +1.712402, +0.411987, +8.193970, +142.349243, -248.748779
1490301718.963511, 1490301718.965865, -0.049805, +1.712402, +0.411987, +10.131836, +135.955811, -251.861572
1490301718.966133, 1490301718.968428, +0.023438, +1.800110, +0.435242, +10.131836, +135.955811, -251.861572
1490301718.968696, 1490301718.970985, +0.023438, +1.800110, +0.435242, +10.131836, +127.075195, -253.707886
1490301718.971254, 1490301718.973540, +0.023438, +1.800110, +0.435242, +11.001587, +127.075195, -253.707886
1490301718.973807, 1490301718.976267, +0.023438, +1.800110, +0.451721, +11.001587, +119.262695, -254.989624
1490301718.976541, 1490301718.978954, +0.105835, +1.891663, +0.451721, +12.954712, +119.094849, -254.989624
1490301718.979228, 1490301718.981647, +0.105835, +1.891663, +0.451721, +12.954712, +111.282349, -255.905151
1490301718.981921, 1490301718.984336, +0.105835, +1.891663, +0.451721, +14.770508, +112.335205, -255.905151
1490301718.984664, 1490301718.987079, +0.233826, +1.964539, +0.481384, +14.770508, +112.335205, -254.867554
1490301718.987459, 1490301718.989878, +0.233826, +1.964539, +0.481384, +16.525269, +106.948853, -254.867554
1490301718.990152, 1490301718.992566, +0.233826, +1.964539, +0.481384, +16.525269, +106.948853, -252.075195
1490301718.992839, 1490301718.995263, +0.233826, +1.964539, +0.481384, +17.196655, +101.562500, -252.075195
1490301718.995537, 1490301718.997950, +0.346802, +1.965271, +0.522400, +17.196655, +101.562500, -246.856689
1490301718.998225, 1490301719.000633, +0.346802, +1.965271, +0.522400, +16.921997, +99.090576, -246.856689
1490301719.000907, 1490301719.003328, +0.346802, +1.965271, +0.522400, +16.921997, +99.090576, -239.044189
1490301719.003601, 1490301719.005978, +0.440552, +1.887451, +0.606628, +15.655518, +94.299316, -242.080688
1490301719.006245, 1490301719.008534, +0.437622, +1.887451, +0.606628, +15.655518, +94.299316, -242.080688
1490301719.008800, 1490301719.011102, +0.437622, +1.887451, +0.606628, +13.244629, +88.012695, -235.382080
1490301719.011368, 1490301719.013653, +0.437622, +1.887451, +0.606628, +13.244629, +88.012695, -235.382080
1490301719.013919, 1490301719.016328, +0.397705, +1.765137, +0.694336, +10.162354, +82.748413, -229.400635
1490301719.016602, 1490301719.019021, +0.397705, +1.765137, +0.694336, +10.162354, +82.748413, -229.400635
1490301719.019298, 1490301719.021711, +0.397705, +1.765137, +0.694336, +4.898071, +77.301025, -222.335815
1490301719.021982, 1490301719.024434, +0.397705, +1.765137, +0.694336, +4.898071, +77.301025, -222.335815
1490301719.024705, 1490301719.027120, +0.339844, +1.681824, +0.758606, +0.793457, +72.448730, -216.705322
1490301719.027391, 1490301719.029803, +0.339844, +1.681824, +0.758606, +0.793457, +72.448730, -216.705322
1490301719.030075, 1490301719.032495, +0.339844, +1.681824, +0.758606, -5.065918, +65.994263, -212.142944
1490301719.032767, 1490301719.035229, +0.339844, +1.614807, +0.764099, -5.065918, +65.994263, -212.142944
1490301719.035500, 1490301719.037913, +0.315674, +1.614807, +0.764099, -9.628296, +58.776855, -207.962036
1490301719.038184, 1490301719.040598, +0.315674, +1.614807, +0.764099, -9.628296, +58.776855, -207.962036
1490301719.040868, 1490301719.043281, +0.315674, +1.614807, +0.764099, -13.763428, +48.339844, -205.307007
1490301719.043554, 1490301719.045979, +0.318787, +1.558777, +0.680786, -13.763428, +48.339844, -205.307007
1490301719.046253, 1490301719.048666, +0.318787, +1.558777, +0.680786, -17.669678, +36.178589, -202.194214
1490301719.048939, 1490301719.051355, +0.318787, +1.558777, +0.680786, -16.937256, +36.178589, -202.194214
1490301719.051627, 1490301719.054049, +0.318787, +1.558777, +0.570557, -20.843506, +21.362305, -199.432373
1490301719.054323, 1490301719.056636, +0.342041, +1.469971, +0.570557, -20.370483, +21.362305, -199.432373
1490301719.056902, 1490301719.059194, +0.342041, +1.469971, +0.570557, -20.370483, +21.362305, -194.473267
1490301719.059460, 1490301719.061757, +0.342041, +1.469971, +0.570557, -24.414062, +5.279541, -194.473267
1490301719.062022, 1490301719.064308, +0.342041, +1.403687, +0.442200, -24.414062, +5.279541, -190.567017
1490301719.064571, 1490301719.066864, +0.375549, +1.403687, +0.442200, -26.870728, -10.986328, -188.949585
1490301719.067132, 1490301719.069414, +0.375549, +1.403687, +0.442200, -26.870728, -10.986328, -188.949585
1490301719.069681, 1490301719.071964, +0.375549, +1.403687, +0.442200, -29.144287, -27.206421, -181.030273
1490301719.072231, 1490301719.074523, +0.499512, +1.375122, +0.296448, -29.144287, -27.206421, -181.030273
1490301719.074802, 1490301719.077209, +0.499512, +1.375122, +0.296448, -27.770996, -43.136597, -172.424316
1490301719.077482, 1490301719.079890, +0.499512, +1.375122, +0.296448, -27.770996, -43.136597, -172.424316
1490301719.080164, 1490301719.082586, +0.499512, +1.375122, +0.296448, -23.986816, -56.106567, -160.568237
1490301719.082859, 1490301719.085283, +0.674744, +1.374207, +0.073608, -23.986816, -56.106567, -160.568237
1490301719.085556, 1490301719.087976, +0.674744, +1.374207, +0.073608, -19.378662, -71.411133, -148.620605
1490301719.088363, 1490301719.090778, +0.674744, +1.374207, +0.073608, -19.378662, -71.411133, -148.620605
1490301719.091051, 1490301719.093463, +0.674744, +1.369263, -0.170288, -12.039185, -87.829590, -132.537842
1490301719.093738, 1490301719.096158, +0.974487, +1.369263, -0.170288, -12.039185, -87.829590, -132.537842
1490301719.096432, 1490301719.098842, +0.974487, +1.369263, -0.170288, -3.097534, -99.716187, -113.662720
1490301719.099115, 1490301719.101519, +0.974487, +1.369263, -0.170288, -3.097534, -99.716187, -113.662720
1490301719.101791, 1490301719.104208, +0.977966, +1.244385, -0.170837, +4.669189, -101.852417, -90.377808
1490301719.104489, 1490301719.106777, +0.977966, +1.244385, -0.170837, +4.669189, -101.852417, -90.377808
1490301719.107040, 1490301719.109329, +0.977966, +1.244385, -0.170837, +4.669189, -94.131470, -66.543579
1490301719.109593, 1490301719.111878, +0.977966, +1.244385, -0.170837, +11.154175, -94.131470, -66.543579
1490301719.112144, 1490301719.114468, +0.642517, +1.057983, -0.008240, +11.154175, -94.131470, -42.663574
1490301719.114743, 1490301719.117159, +0.642517, +1.057983, -0.008240, +14.007568, -78.994751, -42.663574
1490301719.117433, 1490301719.119844, +0.642517, +1.057983, -0.008240, +14.007568, -78.994751, -23.132324
1490301719.120120, 1490301719.122535, +0.642517, +1.011108, +0.143921, +14.587402, -60.607910, -20.523071
1490301719.122808, 1490301719.125240, +0.275574, +1.020996, +0.143921, +14.587402, -60.607910, -0.991821
1490301719.125511, 1490301719.127928, +0.275574, +1.020996, +0.143921, +12.313843, -40.878296, -0.183105
1490301719.128198, 1490301719.130620, +0.275574, +1.020996, +0.143921, +12.313843, -40.878296, -0.183105
1490301719.130892, 1490301719.133300, +0.111694, +1.075928, +0.224487, +8.163452, -20.065308, +18.676758
1490301719.133573, 1490301719.136027, +0.111694, +1.075928, +0.224487, +8.163452, -20.065308, +18.676758
1490301719.136298, 1490301719.138721, +0.111694, +1.075928, +0.224487, +3.631592, +0.076294, +34.881592
1490301719.138990, 1490301719.141400, +0.111694, +1.075928, +0.224487, +3.631592, +0.076294, +34.881592
1490301719.141669, 1490301719.144079, +0.106750, +1.096069, +0.166626, +1.144409, +18.035889, +47.256470
1490301719.144348, 1490301719.146773, +0.106750, +1.096069, +0.166626, +1.144409, +18.035889, +47.256470
1490301719.147043, 1490301719.149456, +0.106750, +1.096069, +0.166626, -0.457764, +33.065796, +57.800293
1490301719.149728, 1490301719.152146, +0.294250, +1.084167, +0.047058, -0.457764, +33.065796, +57.800293
1490301719.152417, 1490301719.154818, +0.289856, +1.084167, +0.047058, -0.900269, +43.472290, +66.207886
1490301719.155083, 1490301719.157371, +0.289856, +1.084167, +0.047058, -0.900269, +43.472290, +66.207886
1490301719.157635, 1490301719.159933, +0.289856, +1.084167, +0.047058, -0.793457, +50.598145, +73.364258
1490301719.160197, 1490301719.162488, +0.502258, +1.074463, -0.029663, -0.793457, +50.598145, +73.364258
1490301719.162752, 1490301719.165086, +0.502258, +1.074463, -0.029663, -0.411987, +55.801392, +80.703735
1490301719.165357, 1490301719.167771, +0.502258, +1.074463, -0.029663, -0.411987, +55.801392, +80.703735
1490301719.168044, 1490301719.170453, +0.502258, +1.074463, -0.029663, +3.494263, +60.379028, +88.363647
1490301719.170726, 1490301719.173141, +0.632812, +1.095337, -0.063354, +0.610352, +60.379028, +88.363647
1490301719.173414, 1490301719.175877, +0.632812, +1.095337, -0.063354, +0.610352, +62.515259, +95.138550
1490301719.176148, 1490301719.178563, +0.632812, +1.095337, -0.063354, +2.700806, +62.515259, +95.138550
1490301719.178833, 1490301719.181249, +0.632812, +1.170959, -0.072693, +2.700806, +58.609009, +102.050781
1490301719.181522, 1490301719.183933, +0.673096, +1.170959, -0.072693, +5.142212, +60.806274, +102.050781
1490301719.184205, 1490301719.186660, +0.673096, +1.170959, -0.072693, +5.142212, +60.806274, +105.789185
1490301719.186932, 1490301719.189351, +0.673096, +1.170959, -0.072693, +7.156372, +53.314209, +105.789185
1490301719.189622, 1490301719.192032, +0.205811, +1.269653, +0.102356, +7.156372, +53.314209, +105.270386
1490301719.192411, 1490301719.194821, +0.205811, +1.269653, +0.102356, +10.025024, +39.581299, +105.270386
1490301719.195090, 1490301719.197380, +0.205811, +1.269653, +0.102356, +10.025024, +39.581299, +101.364136
1490301719.197647, 1490301719.199935, +0.205811, +1.269653, +0.242981, +8.224487, +24.032593, +99.349976
1490301719.200198, 1490301719.202491, -0.842468, +1.327881, +0.262390, +8.224487, +24.032593, +99.349976
1490301719.202755, 1490301719.205083, -0.842468, +1.327881, +0.262390, +12.695312, +4.287720, +83.099365
1490301719.205348, 1490301719.207633, -0.842468, +1.327881, +0.262390, +12.695312, +4.287720, +83.099365
1490301719.207896, 1490301719.210186, -0.842468, +1.046631, +0.165344, +21.026611, -14.404297, +58.395386
1490301719.210453, 1490301719.212738, -2.872009, +1.064209, +0.165344, +21.026611, -14.404297, +58.395386
1490301719.213003, 1490301719.215306, -2.872009, +1.064209, +0.165344, +18.814087, -28.640747, +31.814575
1490301719.215571, 1490301719.217858, -2.872009, +1.064209, +0.165344, +18.814087, -28.640747, +31.814575
1490301719.218124, 1490301719.220407, -1.981384, +0.864075, -0.357239, +7.095337, -36.087036, +17.517090
1490301719.220669, 1490301719.222956, -2.006836, +0.864075, -0.357239, +6.713867, -36.087036, +17.517090
1490301719.223218, 1490301719.225573, -2.006836, +0.864075, -0.357239, +6.713867, -16.555786, +21.545410
1490301719.225844, 1490301719.228261, -2.006836, +0.864075, -0.357239, -3.540039, -18.859863, +21.545410
1490301719.228530, 1490301719.230949, +0.207642, +1.238159, -0.438904, -3.540039, -18.859863, +37.353516
1490301719.231220, 1490301719.233627, +0.207642, +1.238159, -0.438904, -4.104614, -1.312256, +37.353516
1490301719.233896, 1490301719.236322, +0.207642, +1.238159, -0.438904, -4.104614, -1.312256, +57.800293
1490301719.236589, 1490301719.239005, +0.207642, +1.238159, -0.345154, -1.663208, -3.097534, +57.800293
1490301719.239273, 1490301719.241688, +1.155762, +1.442871, -0.370056, -1.663208, -3.097534, +73.425293
1490301719.241955, 1490301719.244377, +1.155762, +1.442871, -0.370056, +7.766724, -17.715454, +71.701050
1490301719.244695, 1490301719.247110, +1.155762, +1.442871, -0.370056, +7.766724, -17.715454, +71.701050
1490301719.247380, 1490301719.249798, +0.218445, +1.213806, -0.027832, +16.983032, -33.981323, +73.501587
1490301719.250074, 1490301719.252493, +0.218445, +1.213806, -0.027832, +16.983032, -33.981323, +73.501587
1490301719.252767, 1490301719.255232, +0.218445, +1.213806, -0.027832, +14.038086, -39.489746, +68.069458
1490301719.255508, 1490301719.257929, +0.218445, +1.213806, -0.027832, +14.038086, -39.489746, +68.069458
1490301719.258203, 1490301719.260614, -0.794861, +1.173889, +0.119202, +8.193970, -37.918091, +59.249878
1490301719.260885, 1490301719.263297, -0.794861, +1.173889, +0.119202, +8.193970, -37.918091, +59.249878
1490301719.263567, 1490301719.265908, -0.794861, +1.173889, +0.119202, +5.981445, -41.351318, +53.344727
1490301719.266174, 1490301719.268462, -0.794861, +1.173889, -0.133484, +5.981445, -41.351318, +53.344727
1490301719.268727, 1490301719.271015, -0.526611, +1.352234, -0.133484, +6.179810, -44.342041, +54.901123
1490301719.271279, 1490301719.273571, -0.526611, +1.352234, -0.133484, +6.179810, -44.342041, +54.901123
1490301719.273835, 1490301719.276260, -0.526611, +1.352234, -0.133484, +4.669189, -43.380737, +59.188843
1490301719.276532, 1490301719.278948, -0.151611, +1.222046, +0.019958, +4.669189, -43.380737, +59.188843
1490301719.279217, 1490301719.281633, -0.171387, +1.222046, +0.019958, +2.243042, -43.167114, +62.911987
1490301719.281903, 1490301719.284312, -0.171387, +1.222046, +0.019958, +2.243042, -43.167114, +62.911987
1490301719.284582, 1490301719.286997, -0.171387, +1.222046, +0.019958, -1.663208, -43.685913, +61.584473
1490301719.287269, 1490301719.289683, -0.438538, +0.946106, +0.349365, -1.205444, -43.685913, +61.584473
1490301719.289955, 1490301719.292363, -0.438538, +0.946106, +0.349365, -1.205444, -43.151855, +55.664062
1490301719.292634, 1490301719.295068, -0.438538, +0.946106, +0.349365, -6.011963, -43.151855, +55.664062
1490301719.295444, 1490301719.297860, -0.438538, +0.758606, +0.847229, -6.011963, -33.889771, +50.796509
1490301719.298131, 1490301719.300554, -0.587769, +0.776733, +0.847229, -12.619019, -33.889771, +50.796509
1490301719.300829, 1490301719.303240, -0.587769, +0.776733, +0.847229, -12.619019, -14.358521, +49.606323
1490301719.303515, 1490301719.308593, -0.587769, +0.775818, +1.371643, -21.987915, -15.625000, +53.619385
1490301719.308874, 1490301719.311168, -0.306885, +0.775818, +1.371643, -32.699585, +7.293701, +53.619385
1490301719.311434, 1490301719.313718, -0.306885, +0.775818, +1.371643, -32.699585, +7.293701, +65.338135
1490301719.313982, 1490301719.316273, -0.306885, +0.775818, +1.371643, -31.173706, +24.063110, +63.476562
1490301719.316540, 1490301719.318823, +0.160950, +1.451477, +0.698547, -31.173706, +24.063110, +63.476562
1490301719.319092, 1490301719.321376, +0.160950, +1.451477, +0.698547, -13.565063, +28.854370, +76.950073
1490301719.321643, 1490301719.323931, +0.160950, +1.451477, +0.698547, -13.565063, +28.854370, +76.950073
