timestamp_before, timestamp_after, accel_x, accel_y, accel_z, gyro_x, gyro_y, gyro_z
1491873197.611305, 1491873197.613603, -0.167725, +1.249146, -0.052368, +3.707886, +8.056641, +2.273560
1491873197.613950, 1491873197.616238, -0.167725, +1.249146, -0.052368, +3.707886, -241.333008, +403.381348
1491873197.616506, 1491873197.618799, -0.157104, +1.018433, -0.068665, -420.654297, -241.333008, +403.381348
1491873197.619070, 1491873197.621470, -0.157104, +1.018433, -0.068665, -420.654297, +264.251709, -399.124146
1491873197.621741, 1491873197.624032, -0.157104, +1.018433, -0.068665, +429.992676, +264.251709, -399.124146
1491873197.624300, 1491873197.626619, -0.157104, +1.018433, -0.115540, +429.992676, +6.439209, +0.305176
1491873197.626881, 1491873197.629176, -0.141541, +1.085815, -0.140442, +1.495361, +5.706787, +0.305176
1491873197.629433, 1491873197.631731, -0.141541, +1.085815, -0.140442, +1.495361, +5.706787, -0.900269
1491873197.631988, 1491873197.634281, -0.141541, +1.085815, -0.140442, +0.076294, +5.249023, -0.900269
1491873197.634539, 1491873197.636834, -0.141541, +1.085815, -0.184937, +0.076294, +5.249023, -2.288818
1491873197.637090, 1491873197.639388, -0.102722, +1.089661, -0.184937, -0.961304, +4.547119, -2.288818
1491873197.639645, 1491873197.642250, -0.102722, +1.089661, -0.184937, -0.961304, +4.547119, -3.295898
1491873197.642508, 1491873197.644805, -0.102722, +1.089661, -0.184937, -2.120972, +2.471924, -3.295898
1491873197.645062, 1491873197.647357, -0.102722, +1.089661, -0.182007, -2.120972, +2.471924, -4.699707
1491873197.647614, 1491873197.649912, -0.130737, +1.115112, -0.182007, -4.882812, -0.137329, -4.699707
1491873197.650242, 1491873197.652538, -0.130737, +1.115112, -0.182007, -4.882812, -0.137329, -6.668091
1491873197.652796, 1491873197.655091, -0.130737, +1.115112, -0.182007, -7.415771, -3.677368, -6.668091
1491873197.655349, 1491873197.657638, -0.130737, +1.120605, -0.162964, -7.415771, -3.677368, -10.574341
1491873197.657900, 1491873197.660213, -0.135864, +1.120605, -0.162964, -9.429932, -7.934570, -8.346558
1491873197.660479, 1491873197.663625, -0.135864, +1.120605, -0.162964, -9.429932, -13.137817, -9.841919
1491873197.663918, 1491873197.666348, -0.135864, +1.120605, -0.162964, -10.696411, -13.137817, -9.841919
1491873197.666622, 1491873197.669046, -0.100891, +1.084900, -0.193176, -14.602661, -16.403198, -10.925293
1491873197.669322, 1491873197.671762, -0.100891, +1.084900, -0.193176, -11.764526, -16.403198, -10.925293
1491873197.672037, 1491873197.674464, -0.100891, +1.084900, -0.193176, -12.817383, -19.012451, -12.664795
1491873197.674739, 1491873197.677162, -0.100891, +1.084900, -0.193176, -12.817383, -19.012451, -12.664795
1491873197.677437, 1491873197.679859, -0.100525, +1.083984, -0.195740, -14.358521, -22.491455, -14.968872
1491873197.680144, 1491873197.682446, -0.100525, +1.083984, -0.195740, -14.358521, -22.491455, -14.968872
1491873197.682716, 1491873197.685015, -0.100525, +1.083984, -0.195740, -16.845703, -24.948120, -16.998291
1491873197.685282, 1491873197.687578, -0.100525, +1.083984, -0.166626, -16.845703, -24.948120, -16.998291
1491873197.687845, 1491873197.690137, -0.096680, +1.093506, -0.166626, -19.470215, -28.381348, -19.287109
1491873197.690404, 1491873197.692703, -0.096680, +1.093506, -0.166626, -19.470215, -28.381348, -19.287109
1491873197.692969, 1491873197.695265, -0.096680, +1.093506, -0.166626, -23.376465, -33.248901, -22.430420
1491873197.695530, 1491873197.697822, -0.096680, +1.093506, -0.184021, -21.881104, -33.248901, -22.430420
1491873197.698089, 1491873197.700420, -0.028748, +1.100098, -0.184021, -21.881104, -36.743164, -26.763916
1491873197.700696, 1491873197.703123, -0.028748, +1.100098, -0.184021, -23.941040, -36.743164, -26.763916
1491873197.703396, 1491873197.705883, -0.028748, +1.100098, -0.184021, -23.941040, -37.658691, -30.685425
1491873197.706158, 1491873197.708587, -0.028748, +1.119690, -0.268250, -26.077271, -37.658691, -30.685425
1491873197.708862, 1491873197.711303, +0.077087, +1.119690, -0.268250, -28.503418, -37.887573, -35.202026
1491873197.711577, 1491873197.714005, +0.077087, +1.119690, -0.268250, -28.503418, -37.887573, -35.202026
1491873197.714440, 1491873197.716865, +0.077087, +1.119690, -0.268250, -30.395508, -38.299561, -40.588379
1491873197.717139, 1491873197.719559, +0.020508, +1.169312, -0.338196, -30.395508, -38.299561, -40.588379
1491873197.719834, 1491873197.722301, +0.020508, +1.169312, -0.338196, -32.089233, -39.413452, -45.791626
1491873197.722576, 1491873197.724999, +0.020508, +1.169312, -0.338196, -32.089233, -39.413452, -45.791626
1491873197.725271, 1491873197.727704, +0.020508, +1.169312, -0.338196, -33.721924, -41.305542, -50.659180
1491873197.727978, 1491873197.730406, -0.011719, +1.237793, -0.292786, -33.721924, -41.305542, -50.659180
1491873197.730680, 1491873197.733110, -0.011719, +1.237793, -0.292786, -34.683228, -43.136597, -54.870605
1491873197.733384, 1491873197.735809, -0.011719, +1.237793, -0.292786, -34.683228, -43.136597, -54.870605
1491873197.736084, 1491873197.738505, -0.011719, +1.237793, -0.261292, -34.835815, -45.394897, -59.555054
1491873197.738777, 1491873197.741143, -0.030945, +1.311951, -0.261292, -34.835815, -45.394897, -59.555054
1491873197.741410, 1491873197.743712, -0.030945, +1.311951, -0.261292, -35.766602, -47.790527, -63.385010
1491873197.743979, 1491873197.746276, -0.030945, +1.311951, -0.261292, -35.766602, -47.790527, -63.385010
1491873197.746542, 1491873197.748844, -0.030945, +1.391235, -0.187500, -36.788940, -50.735474, -67.916870
1491873197.749110, 1491873197.751558, -0.006958, +1.391235, -0.187500, -36.788940, -50.735474, -67.916870
1491873197.751827, 1491873197.754127, -0.006958, +1.391235, -0.187500, -38.223267, -53.359985, -71.701050
1491873197.754394, 1491873197.756700, -0.006958, +1.391235, -0.187500, -38.223267, -53.359985, -71.701050
1491873197.756968, 1491873197.759265, +0.086792, +1.448730, -0.165527, -38.223267, -53.634644, -76.217651
1491873197.759532, 1491873197.762039, +0.083862, +1.448730, -0.165527, -38.223267, -53.634644, -76.217651
1491873197.762313, 1491873197.764737, +0.083862, +1.448730, -0.165527, -37.475586, -52.490234, -80.093384
1491873197.765011, 1491873197.767507, +0.083862, +1.448730, -0.165527, -37.475586, -52.490234, -80.093384
1491873197.767782, 1491873197.770203, +0.091187, +1.417236, -0.216614, -34.927368, -51.849365, -82.580566
1491873197.770475, 1491873197.772866, +0.091187, +1.417236, -0.216614, -34.927368, -51.849365, -82.580566
1491873197.773137, 1491873197.775524, +0.091187, +1.417236, -0.216614, -31.448364, -52.246094, -85.174561
1491873197.775797, 1491873197.778264, +0.091187, +1.417236, -0.216614, -31.448364, -52.246094, -85.174561
1491873197.778540, 1491873197.780952, +0.106567, +1.502747, -0.336731, -27.038574, -54.367065, -85.845947
1491873197.781225, 1491873197.783614, +0.106567, +1.502747, -0.336731, -27.038574, -54.367065, -85.845947
1491873197.783885, 1491873197.786283, +0.106567, +1.502747, -0.336731, -22.399902, -56.442261, -85.220337
1491873197.786555, 1491873197.789002, +0.106567, +1.502747, -0.242981, -22.399902, -56.442261, -85.220337
1491873197.789275, 1491873197.791634, +0.200134, +1.727966, -0.270630, -20.324707, -55.221558, -86.212158
1491873197.791904, 1491873197.794203, +0.200134, +1.727966, -0.270630, -20.324707, -55.221558, -86.212158
1491873197.794473, 1491873197.796766, +0.200134, +1.727966, -0.270630, -20.004272, -51.727295, -89.141846
1491873197.797033, 1491873197.799335, +0.200134, +1.727966, -0.208008, -20.004272, -51.727295, -89.141846
1491873197.799600, 1491873197.801903, +0.017212, +1.828491, -0.208008, -19.256592, -47.500610, -89.813232
1491873197.802170, 1491873197.804508, +0.017212, +1.828491, -0.208008, -19.256592, -47.500610, -89.813232
1491873197.804774, 1491873197.807067, +0.017212, +1.828491, -0.208008, -17.211914, -43.563843, -86.563110
1491873197.807334, 1491873197.809634, +0.017212, +1.734741, -0.125061, -17.211914, -43.563843, -86.563110
1491873197.809900, 1491873197.812250, +0.236938, +1.762024, -0.125061, -15.792847, -35.385132, -84.426880
1491873197.812516, 1491873197.814814, +0.236938, +1.762024, -0.125061, -15.792847, -35.385132, -84.426880
1491873197.815193, 1491873197.817492, +0.236938, +1.762024, -0.125061, -16.448975, -20.721436, -81.558228
1491873197.817758, 1491873197.820254, +0.236938, +1.528564, -0.129822, -16.448975, -20.721436, -81.558228
1491873197.820530, 1491873197.822916, +0.354675, +1.528564, -0.129822, -17.959595, -3.173828, -80.535889
1491873197.823186, 1491873197.825575, +0.354675, +1.528564, -0.129822, -17.959595, -3.173828, -80.535889
1491873197.825940, 1491873197.828347, +0.354675, +1.528564, -0.129822, -20.431519, +9.841919, -83.175659
1491873197.828617, 1491873197.831536, +0.230347, +1.197327, -0.057861, -20.431519, +9.841919, -86.730957
1491873197.831812, 1491873197.834240, +0.230347, +1.197327, -0.057861, -22.872925, +10.848999, -86.730957
1491873197.834516, 1491873197.836939, +0.230347, +1.197327, -0.057861, -22.872925, +6.942749, -88.180542
1491873197.837210, 1491873197.839637, +0.230347, +1.197327, +0.035889, -23.086548, +5.691528, -88.180542
1491873197.839908, 1491873197.842228, -0.103088, +1.063660, +0.004761, -23.086548, +5.691528, -88.470459
1491873197.842493, 1491873197.844795, -0.103088, +1.063660, +0.004761, -21.514893, +7.293701, -88.470459
1491873197.845061, 1491873197.847358, -0.103088, +1.063660, +0.004761, -21.514893, +7.293701, -88.104248
1491873197.847624, 1491873197.849921, -0.103088, +1.063660, -0.119751, -20.629883, +7.232666, -88.104248
1491873197.850196, 1491873197.852618, -0.569641, +0.958191, -0.119751, -20.629883, +7.232666, -83.938599
1491873197.852890, 1491873197.855317, -0.569641, +0.958191, -0.119751, -16.632080, +3.021240, -83.938599
1491873197.855589, 1491873197.858012, -0.569641, +0.958191, -0.119751, -16.632080, -0.885010, -79.269409
1491873197.858284, 1491873197.860697, -0.569641, +0.840271, -0.396973, -7.949829, -2.960205, -79.269409
1491873197.860959, 1491873197.863258, -0.724365, +0.840271, -0.396973, -7.949829, -14.678955, -74.493408
1491873197.863521, 1491873197.865816, -0.724365, +0.840271, -0.396973, -0.473022, -12.435913, -74.493408
1491873197.866079, 1491873197.868380, -0.724365, +0.840271, -0.396973, -0.473022, -12.435913, -69.885254
1491873197.868646, 1491873197.870945, -0.583740, +0.908020, -0.292419, +1.281738, -22.567749, -69.885254
1491873197.871210, 1491873197.873503, -0.593811, +0.908020, -0.292419, +1.281738, -22.567749, -65.048218
1491873197.873767, 1491873197.876066, -0.593811, +0.908020, -0.292419, +1.159668, -27.130127, -65.048218
1491873197.876330, 1491873197.878626, -0.593811, +0.908020, -0.292419, +1.159668, -27.130127, -61.141968
1491873197.878890, 1491873197.881357, -0.173035, +0.717773, -0.176697, +0.625610, -29.022217, -59.539795
1491873197.881623, 1491873197.883918, -0.173035, +0.717773, -0.176697, +0.625610, -29.022217, -51.727295
1491873197.884183, 1491873197.886477, -0.173035, +0.717773, -0.176697, +0.839233, -28.976440, -51.254272
1491873197.886740, 1491873197.889043, -0.173035, +0.717773, -0.176697, +0.839233, -28.976440, -39.535522
1491873197.889306, 1491873197.891839, +0.289124, +0.469849, -0.054199, +1.419067, -28.686523, -40.802002
1491873197.892111, 1491873197.894536, +0.289124, +0.469849, -0.054199, +1.419067, -28.686523, -33.538818
1491873197.894808, 1491873197.897232, +0.289124, +0.469849, -0.054199, +2.365112, -25.054932, -33.538818
1491873197.897503, 1491873197.899927, +0.289124, +0.469849, -0.054199, +2.365112, -25.054932, -30.532837
1491873197.900209, 1491873197.902637, +0.000366, +0.403931, +0.018494, +3.952026, -19.363403, -30.532837
1491873197.902910, 1491873197.905334, +0.000366, +0.403931, +0.018494, +3.952026, -23.269653, -24.063110
1491873197.905607, 1491873197.908030, +0.000366, +0.403931, +0.018494, +3.799438, -20.355225, -24.063110
1491873197.908301, 1491873197.910734, +0.000366, +0.403931, +0.065369, +3.799438, -24.261475, -13.366699
1491873197.911004, 1491873197.913433, -0.047424, +0.422241, +0.074158, +1.403809, -25.405884, -13.366699
1491873197.913705, 1491873197.916132, -0.047424, +0.422241, +0.074158, +1.403809, -31.265259, -0.854492
1491873197.916401, 1491873197.918829, -0.047424, +0.422241, +0.074158, +0.518799, -31.265259, -0.854492
1491873197.919210, 1491873197.921648, -0.047424, +0.383606, +0.040466, +0.717163, -37.933350, +10.009766
1491873197.921920, 1491873197.924345, +0.131653, +0.383606, +0.040466, +0.717163, -37.933350, +10.009766
1491873197.924617, 1491873197.927043, +0.131653, +0.383606, +0.040466, +0.762939, -42.434692, +19.454956
1491873197.927314, 1491873197.929739, +0.131653, +0.383606, +0.040466, +0.762939, -42.434692, +19.454956
1491873197.930010, 1491873197.932332, +0.286377, +0.365662, +0.003845, +1.449585, -42.984009, +27.648926
1491873197.932598, 1491873197.934898, +0.286377, +0.365662, +0.003845, +1.449585, -42.984009, +27.648926
1491873197.935164, 1491873197.937458, +0.286377, +0.365662, +0.003845, +1.907349, -40.664673, +35.720825
1491873197.937722, 1491873197.940020, +0.286377, +0.365662, +0.003845, +1.907349, -40.664673, +35.720825
1491873197.940332, 1491873197.942631, +0.302490, +0.336365, +0.029297, +3.051758, -38.467407, +43.411255
1491873197.942895, 1491873197.945190, +0.302490, +0.336365, +0.029297, +3.051758, -38.467407, +43.411255
1491873197.945454, 1491873197.947850, +0.302490, +0.336365, +0.029297, +6.958008, -36.514282, +50.521851
1491873197.948116, 1491873197.950472, +0.302490, +0.336365, +0.029297, +4.608154, -36.514282, +50.521851
1491873197.950744, 1491873197.953174, +0.269165, +0.329956, +0.040283, +4.608154, -34.271240, +57.495117
1491873197.953446, 1491873197.955870, +0.269165, +0.329956, +0.040283, +6.286621, -34.271240, +57.495117
1491873197.956140, 1491873197.958558, +0.269165, +0.329956, +0.040283, +7.568359, -32.562256, +64.453125
1491873197.958829, 1491873197.961298, +0.269165, +0.329956, +0.040283, +7.568359, -32.562256, +64.453125
1491873197.961569, 1491873197.963991, +0.243896, +0.318420, +0.036804, +8.956909, -31.311035, +71.380615
1491873197.964263, 1491873197.966697, +0.243896, +0.318420, +0.036804, +8.956909, -31.311035, +71.380615
1491873197.966971, 1491873197.969394, +0.243896, +0.318420, +0.036804, +10.162354, -30.197144, +78.002930
1491873197.969668, 1491873197.972102, +0.243896, +0.365295, +0.033875, +10.162354, -30.197144, +78.002930
1491873197.972378, 1491873197.974807, +0.231995, +0.330505, +0.033875, +11.688232, -28.045654, +84.396362
1491873197.975080, 1491873197.977507, +0.231995, +0.330505, +0.033875, +11.688232, -28.045654, +84.396362
1491873197.977783, 1491873197.980200, +0.231995, +0.330505, +0.033875, +13.442993, -25.650024, +90.362549
1491873197.980467, 1491873197.982768, +0.234375, +0.355591, +0.026367, +13.442993, -25.650024, +90.362549
1491873197.983035, 1491873197.985334, +0.234375, +0.355591, +0.026367, +15.350342, -22.186279, +96.267700
1491873197.985600, 1491873197.987902, +0.234375, +0.355591, +0.026367, +15.350342, -22.186279, +96.267700
1491873197.988170, 1491873197.990600, +0.234375, +0.355591, +0.026367, +17.150879, -18.676758, +102.203369
1491873197.990868, 1491873197.993167, +0.210022, +0.395691, +0.013184, +17.150879, -18.676758, +102.203369
1491873197.993437, 1491873197.995738, +0.210022, +0.395691, +0.013184, +19.332886, -13.687134, +107.681274
1491873197.996004, 1491873197.998299, +0.210022, +0.395691, +0.013184, +19.332886, -13.687134, +107.681274
1491873197.998566, 1491873198.001057, +0.210022, +0.395691, +0.013184, +20.858765, -8.392334, +112.289429
1491873198.001329, 1491873198.003748, +0.165161, +0.448608, +0.029663, +20.858765, -8.392334, +112.289429
1491873198.004021, 1491873198.006444, +0.165161, +0.448608, +0.029663, +22.842407, -3.158569, +117.538452
1491873198.006715, 1491873198.009142, +0.165161, +0.448608, +0.029663, +22.842407, -3.158569, +117.538452
1491873198.009413, 1491873198.011846, +0.165161, +0.448608, +0.029663, +24.581909, +3.295898, +121.734619
1491873198.012117, 1491873198.014544, +0.137146, +0.539612, +0.035706, +24.581909, +3.295898, +121.734619
1491873198.014816, 1491873198.017245, +0.137146, +0.539612, +0.035706, +25.878906, +9.338379, +125.030518
1491873198.017516, 1491873198.019939, +0.137146, +0.539612, +0.035706, +25.878906, +9.338379, +125.030518
1491873198.020221, 1491873198.022652, +0.137146, +0.539612, +0.060608, +26.046753, +15.930176, +127.670288
1491873198.023036, 1491873198.025467, +0.060791, +0.673279, +0.060608, +26.046753, +15.930176, +127.670288
1491873198.025742, 1491873198.028166, +0.060791, +0.673279, +0.060608, +26.062012, +23.864746, +129.989624
1491873198.028440, 1491873198.030914, +0.060791, +0.673279, +0.060608, +26.062012, +23.864746, +129.989624
1491873198.031188, 1491873198.033606, -0.007141, +0.775269, +0.068115, +26.153564, +33.386230, +131.729126
1491873198.033882, 1491873198.036309, -0.007141, +0.775269, +0.068115, +26.153564, +33.386230, +135.635376
1491873198.036582, 1491873198.039013, -0.007141, +0.775269, +0.068115, +26.855469, +44.097900, +133.850098
1491873198.039289, 1491873198.041640, -0.007141, +0.775269, +0.068115, +26.855469, +44.097900, +133.850098
1491873198.041908, 1491873198.044209, -0.061340, +0.895203, +0.051636, +26.779175, +54.504395, +135.116577
1491873198.044477, 1491873198.046778, -0.061340, +0.895203, +0.051636, +26.779175, +54.504395, +135.116577
1491873198.047044, 1491873198.049339, -0.061340, +0.895203, +0.051636, +26.260376, +64.880371, +133.850098
1491873198.049606, 1491873198.051910, -0.061340, +0.895203, +0.051636, +26.260376, +64.880371, +133.850098
1491873198.052180, 1491873198.054471, -0.114075, +1.010010, +0.023621, +26.184082, +75.363159, +131.820679
1491873198.054740, 1491873198.057032, -0.114075, +1.010010, +0.023621, +26.184082, +75.363159, +131.820679
1491873198.057301, 1491873198.059602, -0.114075, +1.010010, +0.023621, +26.824951, +85.952759, +130.233765
1491873198.059869, 1491873198.062326, -0.114075, +1.010010, +0.023621, +26.824951, +85.952759, +130.233765
1491873198.062602, 1491873198.065020, -0.225220, +1.112000, -0.007507, +26.565552, +95.275879, +129.394531
1491873198.065297, 1491873198.067720, -0.225220, +1.112000, -0.007507, +26.565552, +95.275879, +129.394531
1491873198.067994, 1491873198.070425, -0.225220, +1.112000, -0.007507, +25.527954, +102.859497, +128.234863
1491873198.070700, 1491873198.073125, -0.225220, +1.112000, -0.066284, +25.527954, +102.859497, +128.234863
1491873198.073399, 1491873198.075824, -0.379761, +1.121521, -0.066284, +26.092529, +109.176636, +125.946045
1491873198.076096, 1491873198.078518, -0.379761, +1.121521, -0.066284, +26.092529, +109.176636, +122.039795
1491873198.078792, 1491873198.081223, -0.379761, +1.121521, -0.066284, +25.405884, +113.006592, +122.817993
1491873198.081499, 1491873198.083925, -0.379761, +1.130676, -0.055115, +25.405884, +113.006592, +121.322632
1491873198.084201, 1491873198.086625, -0.494019, +1.130676, -0.055115, +24.124146, +115.692139, +121.322632
1491873198.086901, 1491873198.089325, -0.494019, +1.130676, -0.055115, +24.124146, +115.692139, +119.827271
1491873198.089600, 1491873198.092025, -0.494019, +1.130676, -0.055115, +22.445679, +117.340088, +119.827271
1491873198.092302, 1491873198.094729, -0.594727, +1.153381, -0.033875, +22.445679, +113.433838, +118.362427
1491873198.095003, 1491873198.097428, -0.594727, +1.153381, -0.033875, +20.843506, +115.982056, +118.362427
1491873198.097702, 1491873198.100130, -0.594727, +1.153381, -0.033875, +20.843506, +112.197876, +115.997314
1491873198.100397, 1491873198.102695, -0.594727, +1.153381, -0.033875, +18.066406, +112.197876, +115.997314
1491873198.102961, 1491873198.105259, -0.656433, +1.183228, -0.004578, +18.066406, +108.291626, +113.937378
1491873198.105526, 1491873198.107822, -0.656433, +1.183228, -0.004578, +14.572144, +107.894897, +113.937378
1491873198.108089, 1491873198.110416, -0.656433, +1.183228, -0.004578, +14.572144, +107.894897, +110.534668
1491873198.110689, 1491873198.113113, -0.656433, +1.183228, -0.004578, +11.169434, +105.102539, +110.534668
1491873198.113386, 1491873198.115817, -0.686096, +1.193481, +0.006592, +11.169434, +105.102539, +105.987549
1491873198.116091, 1491873198.118513, -0.686096, +1.193481, +0.006592, +8.560181, +102.752686, +105.987549
1491873198.118786, 1491873198.121214, -0.686096, +1.193481, +0.006592, +8.560181, +99.822998, +101.486206
1491873198.121488, 1491873198.123913, -0.686096, +1.193481, -0.048523, +6.286621, +99.822998, +101.486206
1491873198.124290, 1491873198.126714, -0.740479, +1.123169, -0.048523, +6.286621, +96.908569, +96.160889
1491873198.126986, 1491873198.129409, -0.740479, +1.123169, -0.048523, +4.852295, +96.908569, +96.160889
1491873198.129683, 1491873198.132115, -0.740479, +1.123169, -0.048523, +3.814697, +92.849731, +90.728760
1491873198.132387, 1491873198.134809, -0.834229, +1.041504, -0.107483, +3.814697, +92.849731, +90.728760
1491873198.135082, 1491873198.137508, -0.799805, +1.041504, -0.107483, +3.982544, +87.509155, +84.991455
1491873198.137781, 1491873198.140204, -0.799805, +1.041504, -0.107483, +3.982544, +87.509155, +84.991455
1491873198.140475, 1491873198.142899, -0.799805, +1.041504, -0.107483, +4.333496, +80.429077, +78.826904
1491873198.143172, 1491873198.145593, -0.841187, +0.972107, -0.113892, +4.333496, +80.429077, +78.826904
1491873198.145866, 1491873198.148287, -0.841187, +0.972107, -0.113892, +5.645752, +70.632935, +72.402954
1491873198.148558, 1491873198.150952, -0.841187, +0.972107, -0.113892, +5.645752, +70.632935, +72.402954
1491873198.151217, 1491873198.153519, -0.841187, +0.972107, -0.113892, +6.362915, +59.631348, +65.307617
1491873198.153784, 1491873198.156084, -0.837524, +0.953430, -0.123230, +6.362915, +59.631348, +65.307617
1491873198.156348, 1491873198.158653, -0.837524, +0.953430, -0.123230, +6.713867, +50.399780, +58.914185
1491873198.158917, 1491873198.161252, -0.837524, +0.953430, -0.123230, +6.713867, +50.399780, +58.914185
1491873198.161517, 1491873198.163812, -0.837524, +0.953430, -0.123230, +6.286621, +43.640137, +52.947998
1491873198.164076, 1491873198.166379, -0.809509, +0.926514, -0.076538, +6.286621, +43.640137, +52.947998
1491873198.166643, 1491873198.168938, -0.809509, +0.926514, -0.076538, +6.088257, +37.185669, +47.271729
1491873198.169202, 1491873198.171592, -0.809509, +0.926514, -0.076538, +6.088257, +37.185669, +47.271729
1491873198.171864, 1491873198.174292, -0.809509, +0.926514, -0.076538, +5.279541, +29.693604, +42.831421
1491873198.174564, 1491873198.176979, -0.744141, +0.917725, -0.058777, +5.279541, +29.693604, +42.831421
1491873198.177251, 1491873198.179681, -0.744141, +0.917725, -0.058777, +4.928589, +20.706177, +38.009644
1491873198.179953, 1491873198.182385, -0.744141, +0.917725, -0.058777, +4.928589, +20.706177, +38.009644
1491873198.182658, 1491873198.185081, -0.744141, +0.917725, -0.057495, +4.776001, +11.871338, +34.332275
1491873198.185353, 1491873198.187778, -0.692688, +0.913513, -0.057495, +4.776001, +11.871338, +34.332275
1491873198.188051, 1491873198.190486, -0.692688, +0.913513, -0.057495, +4.318237, +4.791260, +31.021118
1491873198.190755, 1491873198.193179, -0.692688, +0.913513, -0.057495, +4.318237, +4.791260, +31.021118
1491873198.193447, 1491873198.195875, -0.650208, +0.925415, -0.056213, +4.364014, -1.739502, +28.137207
1491873198.196145, 1491873198.198571, -0.650208, +0.925415, -0.056213, +4.364014, -1.739502, +28.137207
1491873198.198840, 1491873198.201329, -0.650208, +0.925415, -0.056213, +4.821777, -8.316040, +24.902344
1491873198.201599, 1491873198.204017, -0.650208, +0.925415, -0.056213, +4.821777, -8.316040, +24.902344
1491873198.204286, 1491873198.206705, -0.647644, +0.946655, -0.068481, +5.111694, -15.335083, +21.316528
1491873198.206976, 1491873198.209401, -0.647644, +0.946655, -0.068481, +5.111694, -15.335083, +21.316528
1491873198.209672, 1491873198.212000, -0.647644, +0.946655, -0.068481, +5.477905, -22.201538, +17.684937
1491873198.212264, 1491873198.214557, -0.647644, +0.946655, -0.068481, +5.477905, -22.201538, +17.684937
1491873198.214822, 1491873198.217123, -0.650574, +0.959656, -0.071594, +5.859375, -28.625488, +14.282227
1491873198.217387, 1491873198.219685, -0.650574, +0.959656, -0.071594, +5.859375, -28.625488, +14.282227
1491873198.219948, 1491873198.222364, -0.650574, +0.959656, -0.071594, +5.432129, -35.018921, +10.543823
1491873198.222634, 1491873198.225042, -0.650574, +0.959656, -0.071594, +5.432129, -35.018921, +10.543823
1491873198.225313, 1491873198.227720, -0.641235, +0.978699, -0.065369, +5.172729, -41.259766, +6.484985
1491873198.228092, 1491873198.230508, -0.641235, +0.978699, -0.065369, +5.172729, -41.259766, +6.484985
1491873198.230775, 1491873198.233156, -0.641235, +0.978699, -0.065369, +5.432129, -46.524048, +3.326416
1491873198.233422, 1491873198.235807, -0.641235, +0.978699, -0.093201, +5.432129, -46.524048, +3.326416
1491873198.236073, 1491873198.238457, -0.614685, +0.973022, -0.093201, +5.767822, -50.384521, -0.091553
1491873198.238724, 1491873198.241138, -0.614685, +0.973022, -0.093201, +5.767822, -50.384521, -0.091553
1491873198.241408, 1491873198.243838, -0.614685, +0.973022, -0.093201, +5.844116, -54.672241, -3.479004
1491873198.244107, 1491873198.246533, -0.567810, +0.993896, -0.125061, +5.844116, -54.672241, -3.479004
1491873198.246801, 1491873198.249220, -0.591248, +0.993896, -0.125061, +5.844116, -60.165405, -7.415771
1491873198.249488, 1491873198.251924, -0.591248, +0.993896, -0.125061, +5.844116, -60.165405, -7.415771
1491873198.252191, 1491873198.254615, -0.591248, +0.993896, -0.125061, +5.447388, -65.628052, -11.367798
1491873198.254887, 1491873198.257303, -0.570374, +1.034546, -0.173218, +5.447388, -65.628052, -15.274048
1491873198.257576, 1491873198.260003, -0.570374, +1.034546, -0.173218, +5.294800, -68.908691, -15.487671
1491873198.260373, 1491873198.262677, -0.570374, +1.034546, -0.173218, +5.294800, -68.908691, -19.332886
1491873198.262940, 1491873198.265241, -0.570374, +1.034546, -0.173218, +4.592896, -70.861816, -19.332886
1491873198.265504, 1491873198.267801, -0.530457, +1.093323, -0.204346, +4.592896, -70.861816, -27.145386
1491873198.268065, 1491873198.270391, -0.530457, +1.093323, -0.204346, +3.097534, -71.273804, -24.261475
1491873198.270662, 1491873198.273093, -0.530457, +1.093323, -0.204346, +3.097534, -71.273804, -28.167725
1491873198.273363, 1491873198.275789, -0.530457, +1.093323, -0.204346, +2.410889, -70.465088, -29.785156
1491873198.276061, 1491873198.278484, -0.489807, +1.110718, -0.195190, +2.410889, -70.465088, -35.644531
1491873198.278754, 1491873198.281214, -0.489807, +1.110718, -0.195190, +1.312256, -68.679810, -35.644531
1491873198.281484, 1491873198.283906, -0.489807, +1.110718, -0.195190, +1.312256, -68.679810, -41.336060
1491873198.284177, 1491873198.286602, -0.489807, +1.110718, -0.069946, -2.670288, -65.032959, -41.336060
1491873198.286873, 1491873198.289296, -0.403931, +1.090027, -0.069946, -2.670288, -57.220459, -47.973633
1491873198.289570, 1491873198.292003, -0.403931, +1.090027, -0.069946, -6.881714, -57.159424, -47.973633
1491873198.292273, 1491873198.294695, -0.403931, +1.090027, -0.069946, -6.881714, -45.440674, -56.015015
1491873198.294966, 1491873198.297390, -0.329224, +1.039307, -0.025085, -7.690430, -45.211792, -56.015015
1491873198.297662, 1491873198.300093, -0.329224, +1.039307, -0.025085, -7.690430, -32.287598, -62.500000
1491873198.300357, 1491873198.302657, -0.329224, +1.039307, -0.025085, -7.614136, -32.287598, -62.500000
1491873198.302920, 1491873198.305222, -0.329224, +1.039307, -0.025085, -7.614136, -30.944824, -54.794312
1491873198.305487, 1491873198.307784, -0.815735, +0.407593, -0.757324, -2.120972, -30.944824, -54.794312
1491873198.308048, 1491873198.310480, -0.815735, +0.407593, -0.757324, -2.120972, -46.569824, -67.428589
1491873198.310746, 1491873198.313044, -0.815735, +0.407593, -0.757324, +21.545410, -45.120239, -67.428589
1491873198.313311, 1491873198.315614, -0.815735, +0.407593, -0.757324, +21.545410, -37.307739, -68.908691
1491873198.315880, 1491873198.318175, -1.218750, +1.390503, -0.472229, +26.016235, -38.208008, -68.908691
1491873198.318441, 1491873198.320784, -1.218750, +1.390503, -0.472229, +26.016235, -38.208008, -73.608398
1491873198.321055, 1491873198.323461, -1.218750, +1.390503, -0.472229, +11.627197, -17.852783, -73.608398
1491873198.323733, 1491873198.326136, -1.218750, +1.390503, -0.472229, +11.627197, -45.196533, -55.206299
1491873198.326408, 1491873198.328814, -1.554382, +2.790344, +0.386719, -39.901733, -43.045044, -55.206299
1491873198.329085, 1491873198.331479, -1.554382, +2.790344, +0.386719, -39.901733, -74.295044, -11.322021
1491873198.331858, 1491873198.334244, -1.554382, +2.790344, +0.386719, -47.607422, -77.896118, -11.322021
1491873198.334514, 1491873198.336899, -1.554382, +2.790344, -0.381409, -47.607422, -89.447021, -27.755737
1491873198.337169, 1491873198.339550, +0.337646, +0.683716, -0.381409, -9.994507, -89.447021, -27.755737
1491873198.339819, 1491873198.342240, +0.337646, +0.683716, -0.381409, +9.536743, -84.930420, -42.968750
1491873198.342513, 1491873198.344939, +0.337646, +0.683716, -0.381409, +9.765625, -84.930420, -42.968750
1491873198.345211, 1491873198.347634, +0.337646, +1.377869, -0.412354, +21.484375, -39.199829, -26.184082
1491873198.347908, 1491873198.350343, +2.373047, +1.377869, -0.412354, +20.477295, -39.199829, -26.184082
1491873198.350616, 1491873198.353038, +2.373047, +1.377869, -0.412354, +14.022827, -6.301880, -33.065796
1491873198.353306, 1491873198.355729, +2.373047, +1.377869, -0.412354, +14.022827, -6.301880, -33.065796
1491873198.356000, 1491873198.358428, +1.802856, +1.617554, -0.985657, -3.143311, +2.471924, -47.744751
1491873198.358694, 1491873198.361075, +1.802856, +1.617554, -0.985657, -3.143311, +2.471924, -47.744751
1491873198.361334, 1491873198.363630, +1.802856, +1.617554, -0.985657, -2.151489, +20.202637, -42.037964
1491873198.363891, 1491873198.366192, +1.802856, +1.617554, -0.985657, -2.151489, +20.202637, -42.037964
1491873198.366455, 1491873198.368748, +0.387268, +1.187073, -1.332642, +9.765625, +25.772095, -33.584595
1491873198.369012, 1491873198.371390, +0.387268, +1.187073, -1.332642, +9.765625, +25.772095, -33.584595
1491873198.371660, 1491873198.374078, +0.387268, +1.187073, -1.332642, +18.875122, +12.496948, -29.846191
1491873198.374352, 1491873198.376776, +0.387268, +1.187073, -1.332642, +18.875122, +12.496948, -29.846191
1491873198.377046, 1491873198.379474, +0.253784, +1.602539, -0.530090, +20.523071, +6.408691, -27.328491
1491873198.379745, 1491873198.382177, +0.253784, +1.602539, -0.530090, +20.523071, +6.408691, -27.328491
1491873198.382446, 1491873198.384868, +0.253784, +1.602539, -0.530090, +10.726929, +0.381470, -25.894165
1491873198.385140, 1491873198.387567, +0.253784, +1.602539, +0.126160, +10.726929, +0.381470, -25.894165
1491873198.387841, 1491873198.390297, +0.248108, +1.965088, +0.095398, +2.410889, -4.837036, -21.728516
1491873198.390564, 1491873198.392989, +0.248108, +1.965088, +0.095398, +2.410889, -4.837036, -21.728516
1491873198.393256, 1491873198.395676, +0.248108, +1.965088, +0.095398, -6.271362, -4.928589, -20.156860
1491873198.395945, 1491873198.398366, +0.248108, +2.033752, +0.715942, -6.271362, -4.928589, -20.156860
1491873198.398632, 1491873198.401125, +0.669434, +2.033752, +0.715942, -10.955811, +4.684448, -21.270752
1491873198.401397, 1491873198.403814, +0.669434, +2.033752, +0.715942, -10.955811, +4.684448, -21.270752
1491873198.404085, 1491873198.406507, +0.669434, +2.033752, +0.715942, -16.372681, +24.963379, -34.317017
1491873198.406780, 1491873198.409211, +1.208862, +2.329651, +0.419312, -16.372681, +24.963379, -34.317017
1491873198.409483, 1491873198.411824, +1.208862, +2.329651, +0.419312, -11.108398, +38.818359, -46.524048
1491873198.412088, 1491873198.414390, +1.208862, +2.329651, +0.419312, -11.108398, +38.818359, -46.524048
1491873198.414654, 1491873198.416950, +1.208862, +2.329651, +0.419312, -5.783081, +44.052124, -61.065674
1491873198.417213, 1491873198.419504, +0.888794, +2.327087, -0.432312, -5.783081, +44.052124, -61.065674
1491873198.419768, 1491873198.422075, +0.888794, +2.327087, -0.432312, -5.432129, +47.424316, -76.080322
1491873198.422341, 1491873198.424633, +0.888794, +2.327087, -0.432312, -5.432129, +47.424316, -76.080322
1491873198.424897, 1491873198.427192, +0.888794, +2.327087, -0.432312, -6.988525, +44.189453, -86.975098
1491873198.427455, 1491873198.429754, -0.168640, +1.632385, +0.059143, -6.988525, +44.189453, -86.975098
1491873198.430018, 1491873198.432447, -0.168640, +1.632385, +0.059143, -7.415771, +34.576416, -88.790894
1491873198.432718, 1491873198.435147, -0.168640, +1.632385, +0.059143, -7.415771, +34.576416, -88.790894
1491873198.435532, 1491873198.437958, -0.168640, +1.632385, +0.059143, -4.699707, +23.117065, -83.816528
1491873198.438229, 1491873198.440695, -0.428833, +0.764648, +0.129639, -4.699707, +23.117065, -83.816528
1491873198.440969, 1491873198.443398, -0.428833, +0.764648, +0.129639, -0.289917, +13.107300, -77.453613
1491873198.443670, 1491873198.446092, -0.428833, +0.764648, +0.129639, -0.289917, +13.107300, -77.453613
1491873198.446365, 1491873198.448787, -0.428833, +0.670898, -0.266418, +0.595093, +9.918213, -69.168091
1491873198.449057, 1491873198.451495, -0.450073, +0.672363, -0.266418, +0.595093, +9.918213, -69.168091
1491873198.451764, 1491873198.454185, -0.450073, +0.672363, -0.266418, +0.015259, +9.521484, -62.118530
1491873198.454455, 1491873198.456877, -0.450073, +0.672363, -0.266418, +0.015259, +9.521484, -62.118530
1491873198.457146, 1491873198.459569, -0.450073, +0.877441, -0.336914, -1.220703, +8.712769, -55.923462
1491873198.459837, 1491873198.462302, -0.461792, +0.877441, -0.336914, -1.220703, +8.712769, -55.923462
1491873198.462569, 1491873198.464995, -0.461792, +0.877441, -0.336914, -1.647949, +7.095337, -48.675537
1491873198.465262, 1491873198.467683, -0.461792, +0.877441, -0.336914, -1.647949, +7.095337, -40.863037
1491873198.467950, 1491873198.470373, -0.520386, +0.909119, -0.283081, -2.899170, +3.997803, -41.366577
1491873198.470636, 1491873198.472938, -0.520386, +0.909119, -0.283081, -2.899170, +3.997803, -33.554077
1491873198.473199, 1491873198.475497, -0.520386, +0.909119, -0.283081, -3.982544, +0.442505, -33.798218
1491873198.475757, 1491873198.478053, -0.520386, +0.909119, -0.283081, -3.982544, +0.442505, -33.798218
1491873198.478313, 1491873198.480691, -0.544006, +0.879822, -0.214417, -4.196167, -2.639771, -26.351929
1491873198.480959, 1491873198.483376, -0.544006, +0.879822, -0.214417, -4.196167, -2.639771, -18.539429
1491873198.483643, 1491873198.486068, -0.544006, +0.879822, -0.214417, -4.028320, -4.882812, -18.829346
1491873198.486338, 1491873198.488761, -0.544006, +0.879822, -0.214417, -4.028320, -4.882812, -11.016846
1491873198.489030, 1491873198.491502, -0.467102, +0.869019, -0.102905, -3.128052, -6.134033, -11.398315
1491873198.491772, 1491873198.494196, -0.467102, +0.869019, -0.102905, -3.128052, -6.134033, -4.531860
1491873198.494460, 1491873198.496882, -0.467102, +0.869019, -0.102905, -1.861572, -5.050659, -4.531860
1491873198.497146, 1491873198.499572, -0.467102, +0.915894, -0.052734, -1.861572, -5.050659, +1.312256
1491873198.499838, 1491873198.502302, -0.349731, +0.898682, -0.052734, -0.854492, -2.426147, +1.312256
1491873198.502566, 1491873198.504986, -0.349731, +0.898682, -0.052734, -0.854492, +1.480103, +5.386353
1491873198.505250, 1491873198.507674, -0.349731, +0.898682, -0.052734, +0.839233, +1.861572, +5.386353
1491873198.507939, 1491873198.510362, -0.241699, +0.929626, -0.074341, +0.839233, +5.767822, +7.751465
1491873198.510621, 1491873198.512917, -0.241699, +0.929626, -0.074341, +1.861572, +6.454468, +7.751465
1491873198.513174, 1491873198.515476, -0.241699, +0.929626, -0.074341, +1.861572, +10.360718, +9.384155
1491873198.515738, 1491873198.518039, -0.241699, +0.929626, -0.074341, +3.234863, +10.040283, +9.384155
1491873198.518301, 1491873198.520636, -0.152893, +0.988220, -0.095581, +3.234863, +10.040283, +9.979248
1491873198.520906, 1491873198.523330, -0.152893, +0.988220, -0.095581, +4.364014, +13.641357, +9.979248
1491873198.523599, 1491873198.526016, -0.152893, +0.988220, -0.095581, +4.364014, +17.547607, +9.506226
1491873198.526284, 1491873198.528707, -0.152893, +0.988220, -0.095581, +5.889893, +17.044067, +9.506226
1491873198.528977, 1491873198.531416, -0.069031, +1.077026, -0.120667, +5.889893, +20.950317, +7.827759
1491873198.531684, 1491873198.534113, -0.069031, +1.077026, -0.120667, +6.866455, +20.172119, +7.827759
1491873198.534382, 1491873198.536812, -0.069031, +1.077026, -0.120667, +6.866455, +23.422241, +6.164551
1491873198.537081, 1491873198.539508, -0.069031, +1.077026, -0.120667, +7.263184, +23.422241, +6.164551
1491873198.539777, 1491873198.542215, -0.043579, +1.120056, -0.151062, +7.263184, +26.000977, +4.730225
1491873198.542589, 1491873198.545014, -0.043579, +1.120056, -0.151062, +7.080078, +26.000977, +4.730225
1491873198.545283, 1491873198.547704, -0.043579, +1.120056, -0.151062, +5.371094, +27.023315, +4.516602
1491873198.547973, 1491873198.550399, -0.043579, +1.213806, -0.085327, +5.371094, +27.023315, +4.516602
1491873198.550660, 1491873198.552956, -0.162048, +1.197327, -0.085327, +3.463745, +24.765015, +3.738403
1491873198.553217, 1491873198.555518, -0.162048, +1.197327, -0.085327, +3.463745, +24.765015, +3.738403
1491873198.555779, 1491873198.558081, -0.162048, +1.197327, -0.085327, +2.578735, +21.026611, +1.968384
1491873198.558341, 1491873198.560697, -0.162048, +1.102112, -0.124878, +2.578735, +21.026611, +1.968384
1491873198.560958, 1491873198.563259, -0.126526, +1.102112, -0.124878, +2.578735, +17.517090, +1.373291
1491873198.563521, 1491873198.565821, -0.126526, +1.102112, -0.124878, +3.479004, +17.517090, +1.373291
1491873198.566082, 1491873198.568381, -0.126526, +1.102112, -0.124878, +3.479004, +15.060425, +1.358032
1491873198.568643, 1491873198.570946, -0.173401, +1.007446, -0.190796, +3.814697, +15.060425, +1.358032
1491873198.571208, 1491873198.573501, -0.155457, +1.007446, -0.190796, +3.814697, +13.092041, +0.839233
1491873198.573763, 1491873198.576057, -0.155457, +1.007446, -0.190796, +2.960205, +13.092041, +0.839233
1491873198.576317, 1491873198.578614, -0.155457, +1.007446, -0.190796, +2.960205, +9.185791, +0.686646
1491873198.578872, 1491873198.581238, -0.249207, +0.991333, -0.167358, +2.929688, +9.948730, +0.686646
1491873198.581504, 1491873198.583931, -0.234924, +0.991333, -0.167358, +2.929688, +6.042480, +1.052856
1491873198.584196, 1491873198.586614, -0.234924, +0.991333, -0.167358, +2.670288, +6.439209, +1.052856
1491873198.586877, 1491873198.589295, -0.234924, +0.991333, -0.167358, +2.670288, +2.639771, +1.220703
1491873198.589559, 1491873198.591998, -0.209290, +0.967712, -0.145203, +2.059937, +2.639771, +1.220703
1491873198.592264, 1491873198.594689, -0.209290, +0.967712, -0.145203, +2.059937, +0.534058, +1.861572
1491873198.594954, 1491873198.597372, -0.209290, +0.967712, -0.145203, +0.946045, +0.534058, +1.861572
1491873198.597637, 1491873198.600103, -0.209290, +0.967712, -0.145203, +0.946045, -0.839233, +1.373291
1491873198.600370, 1491873198.602789, -0.145020, +0.988037, -0.167175, +0.305176, -0.839233, +1.373291
1491873198.603056, 1491873198.605484, -0.145020, +0.988037, -0.167175, -0.091553, -0.701904, +1.083374
1491873198.605752, 1491873198.608176, -0.145020, +0.988037, -0.167175, -0.091553, -0.701904, +1.083374
1491873198.608441, 1491873198.610916, -0.145020, +0.988037, -0.167175, -1.205444, +0.915527, -0.061035
1491873198.611180, 1491873198.613607, -0.089172, +1.030334, -0.187500, -1.205444, +0.915527, -0.061035
1491873198.613873, 1491873198.616294, -0.089172, +1.030334, -0.187500, -2.578735, +2.746582, -1.678467
1491873198.616557, 1491873198.618984, -0.089172, +1.030334, -0.187500, -2.578735, +2.746582, -1.678467
1491873198.619248, 1491873198.621637, -0.089172, +1.047363, -0.184753, -3.341675, +4.440308, -3.433228
1491873198.621896, 1491873198.624191, -0.087524, +1.047363, -0.184753, -3.341675, +4.440308, -3.433228
1491873198.624449, 1491873198.626751, -0.087524, +1.047363, -0.184753, -4.348755, +5.661011, -5.462646
1491873198.627006, 1491873198.629300, -0.087524, +1.047363, -0.184753, -4.348755, +5.661011, -5.462646
1491873198.629556, 1491873198.631966, -0.087524, +1.060913, -0.160583, -5.462646, +6.561279, -7.720947
1491873198.632230, 1491873198.634654, -0.093201, +1.060913, -0.160583, -5.462646, +6.561279, -7.720947
1491873198.634919, 1491873198.637336, -0.093201, +1.060913, -0.160583, -6.317139, +8.041382, -9.277344
1491873198.637602, 1491873198.640023, -0.093201, +1.060913, -0.160583, -6.317139, +8.041382, -9.277344
1491873198.640339, 1491873198.642762, -0.100891, +1.060364, -0.153992, -6.881714, +8.926392, -11.138916
1491873198.643032, 1491873198.645457, -0.100891, +1.060364, -0.153992, -6.881714, +8.926392, -11.138916
1491873198.645831, 1491873198.648262, -0.100891, +1.060364, -0.153992, -7.583618, +9.231567, -13.214111
1491873198.648531, 1491873198.650994, -0.100891, +1.060364, -0.153992, -7.583618, +9.231567, -13.214111
1491873198.651263, 1491873198.653686, -0.089539, +1.054321, -0.172668, -8.956909, +8.850098, -15.808105
1491873198.653956, 1491873198.656384, -0.089539, +1.054321, -0.172668, -8.956909, +8.850098, -15.808105
1491873198.656654, 1491873198.659077, -0.089539, +1.054321, -0.172668, -10.345459, +8.377075, -17.486572
1491873198.659348, 1491873198.661784, -0.089539, +1.054321, -0.191711, -10.345459, +8.377075, -17.486572
1491873198.662055, 1491873198.664481, -0.083496, +1.027771, -0.191711, -11.093140, +7.980347, -19.348145
1491873198.664753, 1491873198.667178, -0.083496, +1.027771, -0.191711, -11.093140, +7.980347, -19.348145
1491873198.667448, 1491873198.669872, -0.083496, +1.027771, -0.191711, -12.603760, +7.614136, -22.399902
1491873198.670155, 1491873198.672451, -0.130371, +1.025024, -0.202881, -12.603760, +7.614136, -22.399902
1491873198.672716, 1491873198.675013, -0.097229, +1.025024, -0.202881, -15.029907, +6.057739, -24.307251
1491873198.675276, 1491873198.677578, -0.097229, +1.025024, -0.202881, -15.029907, +6.057739, -24.307251
1491873198.677842, 1491873198.680140, -0.097229, +1.025024, -0.202881, -16.906738, +4.287720, -25.878906
1491873198.680415, 1491873198.682719, -0.097229, +1.036926, -0.172485, -16.906738, +4.287720, -25.878906
1491873198.682983, 1491873198.685281, -0.130188, +1.036926, -0.172485, -19.409180, +3.036499, -27.664185
1491873198.685546, 1491873198.687834, -0.130188, +1.036926, -0.172485, -19.409180, +3.036499, -27.664185
1491873198.688099, 1491873198.690429, -0.130188, +1.036926, -0.172485, -21.697998, +1.159668, -29.388428
1491873198.690700, 1491873198.693120, -0.134949, +1.035095, -0.179443, -21.697998, +1.159668, -29.388428
1491873198.693391, 1491873198.695815, -0.134949, +1.035095, -0.179443, -23.330688, -0.946045, -31.021118
1491873198.696087, 1491873198.698517, -0.134949, +1.035095, -0.179443, -23.330688, -0.946045, -31.021118
1491873198.698789, 1491873198.701211, -0.134949, +1.035095, -0.179443, -24.765015, -2.059937, -33.416748
1491873198.701482, 1491873198.703904, -0.115356, +1.025940, -0.179443, -24.765015, -2.059937, -33.416748
1491873198.704175, 1491873198.706603, -0.115356, +1.025940, -0.179443, -25.802612, -2.716064, -36.071777
1491873198.706874, 1491873198.709295, -0.115356, +1.025940, -0.179443, -25.802612, -2.716064, -36.071777
1491873198.709566, 1491873198.712008, -0.115356, +1.025940, -0.179443, -27.511597, -2.960205, -38.818359
1491873198.712280, 1491873198.714695, -0.148499, +1.033264, -0.156006, -27.511597, -2.960205, -38.818359
1491873198.714967, 1491873198.717386, -0.148499, +1.033264, -0.156006, -28.488159, -3.204346, -41.244507
1491873198.717657, 1491873198.720089, -0.148499, +1.033264, -0.156006, -28.488159, -3.204346, -45.150757
1491873198.720362, 1491873198.722783, -0.148499, +1.033264, -0.118835, -29.327393, -3.936768, -43.518066
1491873198.723054, 1491873198.725475, -0.167542, +1.028870, -0.118835, -29.327393, -3.936768, -43.518066
1491873198.725746, 1491873198.728170, -0.167542, +1.028870, -0.118835, -29.693604, -4.455566, -45.959473
1491873198.728443, 1491873198.730867, -0.167542, +1.028870, -0.118835, -29.693604, -4.455566, -48.599243
1491873198.731132, 1491873198.733428, -0.167542, +1.038940, -0.088074, -29.724121, -5.294800, -48.599243
1491873198.733692, 1491873198.735986, -0.146851, +1.038940, -0.088074, -29.724121, -5.294800, -52.505493
1491873198.736250, 1491873198.738546, -0.146851, +1.038940, -0.088074, -30.136108, -6.454468, -52.413940
1491873198.738810, 1491873198.741179, -0.146851, +1.038940, -0.088074, -30.136108, -6.454468, -56.320190
1491873198.741451, 1491873198.743875, +0.022888, +1.084900, -0.110779, -29.403687, -7.659912, -57.174683
1491873198.744147, 1491873198.746567, +0.022888, +1.084900, -0.110779, -29.403687, -7.659912, -61.080933
1491873198.746838, 1491873198.749263, +0.022888, +1.084900, -0.110779, -29.937744, -8.392334, -61.386108
1491873198.749640, 1491873198.752111, +0.022888, +1.084900, -0.110779, -29.937744, -8.392334, -65.429688
1491873198.752383, 1491873198.754811, +0.065552, +1.056519, -0.204712, -31.250000, -7.247925, -65.429688
1491873198.755081, 1491873198.757501, +0.065552, +1.056519, -0.204712, -31.250000, -3.341675, -69.992065
1491873198.757773, 1491873198.760198, +0.065552, +1.056519, -0.204712, -31.860352, -3.616333, -69.992065
1491873198.760471, 1491873198.762898, +0.065552, +1.056519, -0.204712, -31.860352, -1.846313, -73.699951
1491873198.763169, 1491873198.765592, -0.196472, +1.009277, -0.173035, -31.707764, -1.846313, -73.699951
1491873198.765862, 1491873198.768277, -0.196472, +1.009277, -0.173035, -31.707764, -3.799438, -75.592041
1491873198.768547, 1491873198.770983, -0.196472, +1.009277, -0.173035, -31.585693, -3.799438, -75.592041
1491873198.771254, 1491873198.773676, -0.196472, +0.962402, -0.117920, -27.679443, -5.996704, -77.331543
1491873198.773949, 1491873198.776378, -0.298096, +0.959656, -0.117920, -31.173706, -5.996704, -77.331543
1491873198.776650, 1491873198.779074, -0.298096, +0.959656, -0.117920, -30.334473, -7.110596, -79.132080
1491873198.779346, 1491873198.781691, -0.298096, +0.959656, -0.117920, -30.334473, -7.110596, -79.132080
1491873198.781957, 1491873198.784257, -0.334900, +1.013489, -0.088257, -29.220581, -7.705688, -81.192017
1491873198.784521, 1491873198.786814, -0.334900, +1.013489, -0.088257, -29.220581, -7.705688, -81.192017
1491873198.787078, 1491873198.789374, -0.334900, +1.013489, -0.088257, -29.220581, -10.208130, -83.206177
1491873198.789640, 1491873198.791989, -0.334900, +1.013489, -0.088257, -29.083252, -10.208130, -83.206177
1491873198.792256, 1491873198.794549, -0.305054, +1.142212, -0.110413, -29.083252, -14.511108, -85.357666
1491873198.794817, 1491873198.797114, -0.305054, +1.142212, -0.110413, -29.815674, -14.511108, -85.357666
1491873198.797382, 1491873198.799679, -0.305054, +1.142212, -0.110413, -29.815674, -19.729614, -87.646484
1491873198.799946, 1491873198.802379, -0.305054, +1.142212, -0.110413, -32.379150, -19.729614, -87.646484
1491873198.802656, 1491873198.805080, -0.309082, +1.200439, -0.128906, -32.379150, -24.108887, -91.217041
1491873198.805355, 1491873198.807777, -0.309082, +1.200439, -0.128906, -35.491943, -24.108887, -91.217041
1491873198.808051, 1491873198.810490, -0.309082, +1.200439, -0.128906, -35.491943, -27.923584, -93.933105
1491873198.810764, 1491873198.813187, -0.309082, +1.200439, -0.128906, -36.361694, -27.923584, -93.933105
1491873198.813460, 1491873198.815878, -0.309265, +1.222961, -0.167908, -36.529541, -33.447266, -96.389771
1491873198.816151, 1491873198.818578, -0.309265, +1.222961, -0.167908, -36.529541, -33.447266, -96.389771
1491873198.818852, 1491873198.821289, -0.309265, +1.222961, -0.167908, -37.673950, -37.506104, -99.487305
1491873198.821563, 1491873198.823983, -0.309265, +1.222961, -0.167908, -37.673950, -37.506104, -99.487305
1491873198.824258, 1491873198.826685, -0.053101, +1.198425, -0.175598, -41.137695, -35.537720, -103.027344
1491873198.826959, 1491873198.829381, -0.053101, +1.198425, -0.175598, -41.137695, -35.537720, -103.027344
1491873198.829655, 1491873198.832121, -0.053101, +1.198425, -0.175598, -44.769287, -30.593872, -107.391357
1491873198.832397, 1491873198.834824, -0.053101, +0.972107, -0.362732, -44.769287, -30.593872, -107.391357
1491873198.835097, 1491873198.837516, -0.162048, +0.972107, -0.362732, -45.425415, -26.565552, -110.092163
1491873198.837792, 1491873198.840211, -0.162048, +0.972107, -0.362732, -45.425415, -26.565552, -110.092163
1491873198.840478, 1491873198.842775, -0.162048, +0.972107, -0.362732, -46.112061, -25.848389, -112.442017
1491873198.843043, 1491873198.845347, -0.512512, +0.851440, -0.297180, -46.112061, -25.848389, -112.442017
1491873198.845613, 1491873198.847915, -0.512512, +0.851440, -0.297180, -45.257568, -29.052734, -113.616943
1491873198.848181, 1491873198.850533, -0.512512, +0.851440, -0.297180, -45.257568, -29.052734, -113.616943
1491873198.850806, 1491873198.853225, -0.512512, +0.851440, -0.297180, -43.518066, -35.507202, -112.106323
1491873198.853608, 1491873198.856033, -0.612305, +0.668335, -0.224487, -43.518066, -35.507202, -112.106323
1491873198.856307, 1491873198.858731, -0.612305, +0.668335, -0.224487, -42.251587, -40.878296, -109.176636
1491873198.859005, 1491873198.861433, -0.612305, +0.668335, -0.224487, -42.251587, -40.878296, -109.176636
1491873198.861707, 1491873198.864127, -0.612305, +0.668335, -0.224487, -40.222168, -43.258667, -105.072021
1491873198.864400, 1491873198.866820, -0.611938, +0.593079, -0.058960, -40.222168, -43.258667, -105.072021
1491873198.867096, 1491873198.869528, -0.611938, +0.593079, -0.058960, -39.245605, -42.434692, -101.074219
1491873198.869804, 1491873198.872228, -0.611938, +0.593079, -0.058960, -39.245605, -42.434692, -101.074219
1491873198.872502, 1491873198.874926, -0.611938, +0.593079, +0.253967, -40.145874, -42.465210, -97.183228
1491873198.875199, 1491873198.877628, -0.647095, +0.791748, +0.253967, -40.145874, -42.465210, -97.183228
1491873198.877901, 1491873198.880336, -0.647095, +0.791748, +0.253967, -40.481567, -42.861938, -93.902588
1491873198.880608, 1491873198.883032, -0.647095, +0.791748, +0.253967, -40.481567, -42.861938, -93.902588
1491873198.883307, 1491873198.885725, -0.506470, +1.028137, +0.303955, -39.581299, -42.663574, -91.369629
1491873198.885998, 1491873198.888414, -0.503540, +1.028137, +0.303955, -39.581299, -42.663574, -91.369629
1491873198.888688, 1491873198.891077, -0.503540, +1.028137, +0.303955, -39.352417, -40.573120, -91.735840
1491873198.891343, 1491873198.893640, -0.503540, +1.028137, +0.303955, -39.352417, -40.573120, -91.735840
1491873198.893905, 1491873198.896204, -0.433960, +1.420166, +0.167908, -39.825439, -36.651611, -93.536377
1491873198.896470, 1491873198.898774, -0.433960, +1.420166, +0.167908, -39.825439, -36.651611, -93.536377
1491873198.899041, 1491873198.901417, -0.433960, +1.420166, +0.167908, -40.435791, -32.882690, -96.130371
1491873198.901693, 1491873198.904122, -0.433960, +1.420166, +0.167908, -40.435791, -32.882690, -96.130371
1491873198.904395, 1491873198.906819, -0.411438, +1.747009, +0.087891, -38.864136, -30.014038, -102.294922
1491873198.907094, 1491873198.909515, -0.411438, +1.747009, +0.087891, -38.864136, -30.014038, -110.107422
1491873198.909789, 1491873198.912232, -0.411438, +1.747009, +0.087891, -35.903931, -28.121948, -109.756470
1491873198.912506, 1491873198.914928, -0.411438, +1.747009, +0.087891, -35.903931, -28.121948, -117.553711
1491873198.915203, 1491873198.917623, -0.235107, +2.058655, -0.019226, -35.675049, -26.855469, -117.553711
1491873198.917899, 1491873198.920338, -0.235107, +2.058655, -0.019226, -35.675049, -26.855469, -126.022339
1491873198.920611, 1491873198.923032, -0.235107, +2.058655, -0.019226, -39.001465, -25.985718, -126.022339
1491873198.923305, 1491873198.925736, -0.235107, +2.058655, -0.212585, -39.001465, -25.985718, -133.056641
1491873198.926009, 1491873198.928432, -0.085693, +1.806335, -0.212585, -47.592163, -23.941040, -133.056641
1491873198.928708, 1491873198.931137, -0.085693, +1.806335, -0.212585, -47.592163, -20.034790, -138.748169
1491873198.931413, 1491873198.933840, -0.085693, +1.806335, -0.212585, -51.025391, -21.179199, -138.748169
1491873198.934115, 1491873198.936534, -0.507568, +1.359558, -0.275391, -51.025391, -24.826050, -143.768311
1491873198.936808, 1491873198.939232, -0.476807, +1.359558, -0.275391, -52.169800, -24.826050, -143.768311
1491873198.939506, 1491873198.941846, -0.476807, +1.359558, -0.275391, -52.169800, -33.859253, -146.926880
1491873198.942112, 1491873198.944412, -0.476807, +1.359558, -0.275391, -51.193237, -33.859253, -146.926880
1491873198.944678, 1491873198.946981, -0.675110, +1.190186, -0.200134, -51.193237, -45.013428, -148.300171
1491873198.947250, 1491873198.949538, -0.675110, +1.190186, -0.200134, -51.010132, -45.013428, -148.300171
1491873198.949805, 1491873198.952221, -0.675110, +1.190186, -0.200134, -51.010132, -51.940918, -148.910522
1491873198.952496, 1491873198.954922, -0.675110, +1.190186, -0.200134, -51.834106, -51.940918, -148.910522
1491873198.955296, 1491873198.957722, -0.645813, +1.121338, -0.068665, -47.927856, -56.671143, -149.963379
1491873198.957995, 1491873198.960419, -0.645813, +1.121338, -0.068665, -50.262451, -56.671143, -149.963379
1491873198.960695, 1491873198.963120, -0.645813, +1.121338, -0.068665, -47.424316, -61.828613, -150.939941
1491873198.963394, 1491873198.965814, -0.645813, +1.121338, -0.068665, -47.424316, -61.828613, -150.939941
1491873198.966087, 1491873198.968504, -0.618164, +1.410828, +0.108215, -46.676636, -67.245483, -152.557373
1491873198.968779, 1491873198.971204, -0.618164, +1.410828, +0.108215, -46.676636, -67.245483, -152.557373
1491873198.971478, 1491873198.973900, -0.618164, +1.410828, +0.108215, -47.546387, -70.831299, -154.083252
1491873198.974175, 1491873198.976599, -0.618164, +1.832703, +0.294800, -47.546387, -70.831299, -154.083252
1491873198.976872, 1491873198.979291, -0.386902, +1.873169, +0.294800, -49.377441, -71.243286, -156.143188
1491873198.979565, 1491873198.981998, -0.386902, +1.873169, +0.294800, -49.377441, -71.243286, -156.143188
1491873198.982273, 1491873198.984699, -0.386902, +1.873169, +0.294800, -52.398682, -69.244385, -159.942627
1491873198.984973, 1491873198.987395, -0.116638, +2.294495, +0.332520, -52.398682, -69.244385, -159.942627
1491873198.987670, 1491873198.990103, -0.116638, +2.294495, +0.332520, -56.427002, -64.926147, -163.253784
1491873198.990372, 1491873198.992670, -0.116638, +2.294495, +0.332520, -56.427002, -64.926147, -163.253784
1491873198.992937, 1491873198.995232, -0.116638, +2.294495, +0.332520, -60.943604, -56.655884, -163.253784
1491873198.995499, 1491873198.997805, +0.152161, +2.367920, +0.208557, -60.943604, -56.655884, -163.253784
1491873198.998071, 1491873199.000390, +0.152161, +2.367920, +0.208557, -64.056396, -44.937134, -161.849976
1491873199.000664, 1491873199.003094, +0.152161, +2.367920, +0.208557, -64.056396, -44.937134, -161.849976
1491873199.003368, 1491873199.005793, +0.152161, +2.367920, +0.208557, -67.428589, -34.500122, -158.020020
1491873199.006068, 1491873199.008490, +0.191895, +1.970764, +0.088074, -67.428589, -34.500122, -158.020020
1491873199.008766, 1491873199.011208, +0.191895, +1.970764, +0.088074, -67.733765, -26.443481, -154.953003
1491873199.011483, 1491873199.013902, +0.191895, +1.970764, +0.088074, -67.733765, -26.443481, -154.953003
1491873199.014177, 1491873199.016600, +0.191895, +1.970764, +0.088074, -66.482544, -17.959595, -151.336670
1491873199.016877, 1491873199.019304, +0.010986, +1.475464, -0.000549, -66.482544, -17.959595, -151.336670
1491873199.019577, 1491873199.022008, +0.010986, +1.475464, -0.000549, -65.612793, -6.607056, -146.408081
1491873199.022280, 1491873199.024702, +0.010986, +1.475464, -0.000549, -65.612793, -6.607056, -146.408081
1491873199.024974, 1491873199.027409, +0.010986, +0.866089, -0.187317, -59.509277, +7.186890, -141.845703
1491873199.027680, 1491873199.030116, -0.332336, +0.868835, -0.187317, -59.509277, +7.186890, -141.845703
1491873199.030386, 1491873199.032816, -0.332336, +0.868835, -0.187317, -51.773071, +24.200439, -137.619019
1491873199.033089, 1491873199.035509, -0.332336, +0.868835, -0.187317, -51.773071, +24.200439, -137.619019
1491873199.035782, 1491873199.038204, -0.718689, +0.485779, -0.208008, -44.021606, +44.677734, -130.874634
1491873199.038477, 1491873199.040876, -0.718689, +0.485779, -0.208008, -44.021606, +44.677734, -130.874634
1491873199.041142, 1491873199.043436, -0.718689, +0.485779, -0.208008, -35.964966, +63.171387, -123.962402
1491873199.043702, 1491873199.046000, -0.718689, +0.485779, -0.208008, -35.964966, +63.171387, -123.962402
1491873199.046264, 1491873199.048568, -1.064575, +0.468201, +0.163696, -34.881592, +78.002930, -120.803833
1491873199.048834, 1491873199.051137, -1.064575, +0.468201, +0.163696, -34.881592, +78.002930, -120.803833
1491873199.051403, 1491873199.053699, -1.064575, +0.468201, +0.163696, -42.083740, +85.266113, -121.154785
1491873199.053964, 1491873199.056253, -1.064575, +0.468201, +0.163696, -42.083740, +85.266113, -121.154785
1491873199.056521, 1491873199.058812, -1.189270, +0.386902, +0.450806, -45.898438, +77.331543, -119.415283
1491873199.059185, 1491873199.061594, -1.189270, +0.386902, +0.450806, -45.898438, +77.331543, -119.415283
1491873199.061869, 1491873199.064289, -1.189270, +0.386902, +0.450806, -41.473389, +62.683105, -110.931396
1491873199.064561, 1491873199.066986, -1.189270, +0.386902, +0.450806, -41.473389, +62.683105, -110.931396
1491873199.067258, 1491873199.069685, -0.941345, +0.199768, +0.335083, -38.284302, +55.923462, -96.832275
1491873199.069958, 1491873199.072392, -0.941345, +0.199768, +0.335083, -38.284302, +55.923462, -96.832275
1491873199.072668, 1491873199.075092, -0.941345, +0.199768, +0.335083, -39.276123, +56.777954, -81.558228
1491873199.075365, 1491873199.077785, -0.941345, +0.199768, +0.244812, -39.276123, +56.777954, -65.933228
1491873199.078058, 1491873199.080484, -0.631897, +0.017029, +0.244812, -38.681030, +58.517456, -63.186646
1491873199.080758, 1491873199.083184, -0.631897, +0.017029, +0.244812, -38.681030, +58.517456, -43.655396
1491873199.083457, 1491873199.085879, -0.631897, +0.017029, +0.244812, -38.711548, +60.791016, -45.989990
1491873199.086154, 1491873199.088572, -0.631897, -0.112610, +0.208557, -38.711548, +60.791016, -33.462524
1491873199.088848, 1491873199.091321, -0.285645, -0.112610, +0.208557, -39.413452, +62.271118, -33.462524
1491873199.091594, 1491873199.094020, -0.285645, -0.112610, +0.208557, -39.413452, +62.271118, -25.115967
1491873199.094294, 1491873199.096720, -0.285645, -0.112610, +0.208557, -41.168213, +62.576294, -25.115967
1491873199.096996, 1491873199.099412, -0.153809, -0.408325, +0.165527, -41.168213, +62.576294, -17.501831
1491873199.099686, 1491873199.102013, -0.153809, -0.408325, +0.165527, -39.505005, +62.728882, -17.501831
1491873199.102280, 1491873199.104579, -0.153809, -0.408325, +0.165527, -39.505005, +58.822632, -6.561279
1491873199.104844, 1491873199.107140, -0.153809, -0.408325, +0.165527, -35.919189, +60.516357, -6.561279
1491873199.107403, 1491873199.109698, +0.110962, -0.441467, -0.007324, -35.919189, +60.516357, +11.077881
1491873199.109965, 1491873199.112408, +0.110962, -0.441467, -0.007324, -33.325195, +56.457520, +11.077881
1491873199.112683, 1491873199.115106, +0.110962, -0.441467, -0.007324, -33.325195, +52.551270, +31.677246
1491873199.115381, 1491873199.117804, +0.110962, -0.441467, -0.007324, -31.341553, +51.162720, +31.677246
1491873199.118081, 1491873199.120520, +0.215332, -0.222107, +0.061890, -31.341553, +39.443970, +43.395996
1491873199.120794, 1491873199.123217, +0.215332, -0.222107, +0.061890, -34.423828, +39.413452, +43.395996
1491873199.123490, 1491873199.125913, +0.215332, -0.222107, +0.061890, -34.423828, +27.038574, +51.834106
1491873199.126187, 1491873199.128608, +0.215332, -0.222107, -0.108398, -32.592773, +27.038574, +51.834106
1491873199.128881, 1491873199.131308, -0.038635, -0.075623, -0.108398, -28.686523, +25.863647, +63.796997
1491873199.131583, 1491873199.134012, -0.038635, -0.075623, -0.108398, -27.725220, +25.863647, +63.796997
1491873199.134286, 1491873199.136706, -0.038635, -0.075623, -0.108398, -20.935059, +22.567749, +79.345703
1491873199.136983, 1491873199.139411, -0.038635, -0.098877, -0.222656, -20.935059, +22.567749, +79.345703
1491873199.139686, 1491873199.142122, +0.186584, -0.098877, -0.222656, -14.266968, +12.512207, +91.583252
1491873199.142397, 1491873199.144819, +0.186584, -0.098877, -0.222656, -14.266968, +12.512207, +91.583252
1491873199.145094, 1491873199.147515, +0.186584, -0.098877, -0.222656, -10.391235, +2.761841, +98.648071
1491873199.147787, 1491873199.150201, +0.030029, -0.018494, -0.133118, -10.391235, +2.761841, +98.648071
1491873199.150467, 1491873199.152766, +0.030029, -0.018494, -0.133118, -8.117676, -5.203247, +105.514526
1491873199.153029, 1491873199.155330, +0.030029, -0.018494, -0.133118, -8.117676, -5.203247, +105.514526
1491873199.155592, 1491873199.157887, +0.030029, -0.018494, -0.133118, -4.013062, -16.860962, +113.861084
1491873199.158150, 1491873199.160525, -0.175232, -0.066833, -0.086243, -4.013062, -16.860962, +113.861084
1491873199.160910, 1491873199.163332, -0.175232, -0.066833, -0.086243, +1.281738, -30.853271, +123.168945
1491873199.163604, 1491873199.166026, -0.175232, -0.066833, -0.086243, +1.281738, -30.853271, +123.168945
1491873199.166297, 1491873199.168723, -0.175232, -0.066833, -0.086243, +7.278442, -42.327881, +133.483887
1491873199.168994, 1491873199.171418, -0.089722, -0.034241, -0.069763, +7.278442, -42.327881, +133.483887
1491873199.171689, 1491873199.174116, -0.089722, -0.034241, -0.069763, +13.076782, -48.019409, +143.722534
1491873199.174391, 1491873199.176821, -0.089722, -0.034241, -0.069763, +13.076782, -48.019409, +143.722534
1491873199.177095, 1491873199.179513, -0.089722, -0.034241, -0.019775, +18.264771, -49.255371, +152.999878
1491873199.179788, 1491873199.182230, +0.048157, +0.065186, -0.019775, +18.264771, -49.255371, +152.999878
1491873199.182504, 1491873199.184921, +0.048157, +0.065186, -0.019775, +22.567749, -48.416138, +160.949707
1491873199.185195, 1491873199.187616, +0.048157, +0.065186, -0.019775, +22.567749, -48.416138, +160.949707
1491873199.187890, 1491873199.190330, +0.048157, +0.197571, +0.057678, +27.755737, -45.898438, +168.411255
1491873199.190606, 1491873199.193023, +0.068115, +0.197571, +0.057678, +27.755737, -45.898438, +168.411255
1491873199.193296, 1491873199.195722, +0.068115, +0.197571, +0.057678, +32.012939, -42.617798, +174.758911
1491873199.195995, 1491873199.198424, +0.068115, +0.197571, +0.057678, +32.012939, -42.617798, +174.758911
1491873199.198696, 1491873199.201087, +0.052734, +0.328308, +0.105652, +35.095215, -38.330078, +180.038452
1491873199.201356, 1491873199.203658, +0.052734, +0.328308, +0.105652, +35.095215, -38.330078, +180.038452
1491873199.203929, 1491873199.206217, +0.052734, +0.328308, +0.105652, +38.009644, -32.943726, +184.722900
1491873199.206486, 1491873199.208784, +0.052734, +0.328308, +0.105652, +38.009644, -32.943726, +184.722900
1491873199.209050, 1491873199.211421, +0.065186, +0.428650, +0.131287, +40.573120, -26.412964, +189.132690
1491873199.211696, 1491873199.214100, +0.065186, +0.428650, +0.131287, +40.573120, -26.412964, +189.132690
1491873199.214374, 1491873199.216778, +0.065186, +0.428650, +0.131287, +43.914795, -18.356323, +193.222046
1491873199.217052, 1491873199.219458, +0.065186, +0.428650, +0.131287, +43.914795, -18.356323, +193.222046
1491873199.219731, 1491873199.222145, +0.068298, +0.558105, +0.125244, +46.630859, -8.529663, +196.823120
1491873199.222419, 1491873199.224828, +0.068298, +0.558105, +0.125244, +46.630859, -8.529663, +196.823120
1491873199.225097, 1491873199.227505, +0.068298, +0.558105, +0.125244, +49.240112, +3.128052, +199.234009
1491873199.227775, 1491873199.230187, +0.068298, +0.558105, +0.089722, +49.240112, +3.128052, +199.234009
1491873199.230457, 1491873199.232848, +0.034973, +0.688843, +0.089722, +51.742554, +15.792847, +201.522827
1491873199.233119, 1491873199.235503, +0.034973, +0.688843, +0.089722, +51.742554, +15.792847, +201.522827
1491873199.235775, 1491873199.238153, +0.034973, +0.688843, +0.089722, +54.626465, +27.923584, +203.933716
1491873199.238425, 1491873199.240825, +0.034973, +0.796509, +0.025085, +54.626465, +27.923584, +203.933716
1491873199.241100, 1491873199.243522, -0.045227, +0.796509, +0.025085, +55.862427, +37.796021, +206.207275
1491873199.243796, 1491873199.246226, -0.045227, +0.796509, +0.025085, +55.862427, +37.796021, +210.113525
1491873199.246500, 1491873199.248920, -0.045227, +0.796509, +0.025085, +56.884766, +44.937134, +208.816528
1491873199.249195, 1491873199.251544, -0.161682, +0.860779, -0.051636, +56.884766, +44.937134, +211.364746
1491873199.251813, 1491873199.254116, -0.161682, +0.860779, -0.051636, +57.693481, +48.553467, +211.364746
1491873199.254384, 1491873199.256686, -0.161682, +0.860779, -0.051636, +57.693481, +48.553467, +211.364746
1491873199.256953, 1491873199.259250, -0.161682, +0.860779, -0.051636, +58.044434, +47.790527, +213.760376
1491873199.259517, 1491873199.261946, -0.280518, +0.929810, -0.141724, +58.044434, +47.790527, +217.666626
1491873199.262221, 1491873199.264644, -0.280518, +0.929810, -0.141724, +58.807373, +42.037964, +216.323853
1491873199.265025, 1491873199.267449, -0.280518, +0.929810, -0.141724, +58.807373, +42.037964, +218.856812
1491873199.267723, 1491873199.270153, -0.280518, +0.929810, -0.141724, +60.073853, +33.477783, +218.856812
1491873199.270429, 1491873199.272854, -0.344238, +0.977966, -0.218628, +60.073853, +33.477783, +221.343994
1491873199.273127, 1491873199.275557, -0.344238, +0.977966, -0.218628, +61.157227, +22.216797, +221.343994
1491873199.275831, 1491873199.278256, -0.344238, +0.977966, -0.218628, +61.157227, +10.498047, +223.510742
1491873199.278530, 1491873199.280970, -0.344238, +0.977966, -0.220276, +63.415527, +10.482788, +223.510742
1491873199.281245, 1491873199.283673, -0.293518, +1.025024, -0.220276, +63.415527, -0.015259, +225.234985
1491873199.283947, 1491873199.286371, -0.293518, +1.025024, -0.220276, +66.131592, -0.015259, +225.234985
1491873199.286643, 1491873199.289072, -0.293518, +1.025024, -0.220276, +70.037842, -7.644653, +225.845337
1491873199.289343, 1491873199.291773, -0.246643, +1.126282, -0.133118, +68.649292, -7.644653, +225.845337
1491873199.292042, 1491873199.294467, -0.248474, +1.126282, -0.133118, +71.060181, -13.427734, +226.104736
1491873199.294740, 1491873199.297164, -0.248474, +1.126282, -0.133118, +71.060181, -13.427734, +226.104736
1491873199.297439, 1491873199.299866, -0.248474, +1.126282, -0.133118, +72.982788, -17.242432, +225.692749
1491873199.300148, 1491873199.302444, -0.263306, +1.237793, -0.007507, +72.982788, -17.242432, +225.692749
1491873199.302713, 1491873199.305016, -0.263306, +1.237793, -0.007507, +73.684692, -20.233154, +224.609375
1491873199.305284, 1491873199.307580, -0.263306, +1.237793, -0.007507, +73.684692, -20.233154, +224.609375
1491873199.307848, 1491873199.310281, -0.263306, +1.237793, -0.007507, +73.684692, -22.460938, +223.342896
1491873199.310567, 1491873199.312869, -0.335815, +1.326782, +0.117371, +73.455811, -22.460938, +223.342896
1491873199.313137, 1491873199.315435, -0.335815, +1.326782, +0.117371, +73.333740, -22.079468, +221.878052
1491873199.315703, 1491873199.318005, -0.335815, +1.326782, +0.117371, +73.333740, -22.079468, +221.878052
1491873199.318273, 1491873199.320605, -0.335815, +1.326782, +0.117371, +73.333740, -19.363403, +219.940186
1491873199.320881, 1491873199.323299, -0.362183, +1.387573, +0.234192, +72.494507, -19.363403, +219.940186
1491873199.323573, 1491873199.325995, -0.362183, +1.387573, +0.234192, +72.494507, -15.579224, +217.376709
1491873199.326269, 1491873199.328689, -0.362183, +1.387573, +0.234192, +71.533203, -15.579224, +217.376709
1491873199.328964, 1491873199.331400, -0.362183, +1.387573, +0.327942, +70.053101, -9.948730, +214.187622
1491873199.331672, 1491873199.334090, -0.430298, +1.457153, +0.292053, +70.053101, -9.948730, +214.187622
1491873199.334364, 1491873199.336785, -0.430298, +1.457153, +0.292053, +68.618774, -2.120972, +210.067749
1491873199.337056, 1491873199.339478, -0.430298, +1.457153, +0.292053, +68.618774, -2.120972, +210.067749
1491873199.339750, 1491873199.342186, -0.430298, +1.541931, +0.253235, +67.398071, +6.484985, +205.627441
1491873199.342455, 1491873199.344880, -0.536682, +1.541931, +0.253235, +67.398071, +6.484985, +205.627441
1491873199.345152, 1491873199.347580, -0.536682, +1.541931, +0.253235, +65.780640, +14.205933, +200.912476
1491873199.347855, 1491873199.350289, -0.536682, +1.541931, +0.253235, +65.780640, +14.205933, +200.912476
1491873199.350562, 1491873199.352985, -0.693604, +1.645569, +0.158936, +63.415527, +19.805908, +194.885254
1491873199.353258, 1491873199.355677, -0.693604, +1.645569, +0.158936, +63.415527, +19.805908, +194.885254
1491873199.355950, 1491873199.358371, -0.693604, +1.645569, +0.158936, +59.249878, +23.513794, +188.781738
1491873199.358645, 1491873199.361031, -0.693604, +1.645569, +0.158936, +59.249878, +23.513794, +188.781738
1491873199.361298, 1491873199.363593, -0.756592, +1.811829, +0.124695, +54.794312, +28.747559, +180.908203
1491873199.363861, 1491873199.366159, -0.756592, +1.811829, +0.124695, +54.794312, +28.747559, +180.908203
1491873199.366534, 1491873199.368841, -0.756592, +1.811829, +0.124695, +50.216675, +32.821655, +175.796509
1491873199.369108, 1491873199.371534, -0.756592, +1.811829, +0.124695, +50.216675, +32.821655, +175.796509
1491873199.371808, 1491873199.374233, -0.881836, +1.729065, +0.012085, +47.470093, +36.132812, +171.371460
1491873199.374506, 1491873199.376923, -0.881836, +1.729065, +0.012085, +47.470093, +36.132812, +171.371460
1491873199.377198, 1491873199.379619, -0.881836, +1.729065, +0.012085, +45.898438, +39.215088, +166.595459
1491873199.379893, 1491873199.382329, -0.881836, +1.729065, -0.075623, +45.898438, +39.215088, +166.595459
1491873199.382603, 1491873199.385023, -0.954895, +1.578552, -0.075623, +43.914795, +42.556763, +162.002563
1491873199.385298, 1491873199.387715, -0.954895, +1.578552, -0.075623, +43.914795, +42.556763, +162.002563
1491873199.387989, 1491873199.390420, -0.954895, +1.578552, -0.075623, +43.762207, +45.684814, +157.226562
1491873199.390695, 1491873199.393118, -0.954895, +1.473083, -0.093933, +43.762207, +45.684814, +157.226562
1491873199.393393, 1491873199.395818, -0.952148, +1.473083, -0.093933, +43.960571, +46.997070, +150.512695
1491873199.396091, 1491873199.398512, -0.952148, +1.473083, -0.093933, +43.960571, +46.997070, +150.512695
1491873199.398785, 1491873199.401218, -0.952148, +1.473083, -0.093933, +44.143677, +44.967651, +144.699097
1491873199.401491, 1491873199.403921, -0.903259, +1.437012, -0.042847, +44.143677, +44.967651, +136.886597
1491873199.404193, 1491873199.406617, -0.903259, +1.437012, -0.042847, +44.021606, +38.970947, +138.015747
1491873199.406891, 1491873199.409311, -0.903259, +1.437012, -0.042847, +44.021606, +38.970947, +130.615234
1491873199.409585, 1491873199.411928, -0.903259, +1.437012, -0.042847, +42.785645, +32.287598, +130.615234
1491873199.412195, 1491873199.414489, -0.898499, +1.439026, +0.027100, +42.785645, +32.287598, +122.802734
1491873199.414754, 1491873199.417053, -0.898499, +1.439026, +0.027100, +40.313721, +25.222778, +123.184204
1491873199.417320, 1491873199.419617, -0.898499, +1.439026, +0.027100, +40.313721, +25.222778, +123.184204
1491873199.419884, 1491873199.422220, -0.898499, +1.439026, +0.027100, +36.499023, +17.883301, +116.653442
1491873199.422486, 1491873199.424787, -0.872864, +1.393616, +0.043945, +36.499023, +17.883301, +116.653442
1491873199.425053, 1491873199.427348, -0.872864, +1.393616, +0.043945, +32.592773, +10.620117, +110.382080
1491873199.427616, 1491873199.429908, -0.872864, +1.393616, +0.043945, +32.592773, +10.620117, +110.382080
1491873199.430191, 1491873199.432608, -0.872864, +1.393616, +0.043945, +29.769897, +1.724243, +103.622437
1491873199.432878, 1491873199.435298, -0.852539, +1.283752, +0.000916, +29.769897, +1.724243, +103.622437
1491873199.435570, 1491873199.437996, -0.852539, +1.283752, +0.000916, +26.992798, -8.926392, +97.091675
1491873199.438267, 1491873199.440699, -0.852539, +1.283752, +0.000916, +26.992798, -8.926392, +93.185425
1491873199.440971, 1491873199.443397, -0.852539, +1.143127, -0.045959, +25.009155, -21.072388, +91.110229
1491873199.443673, 1491873199.446099, -0.825073, +1.141479, -0.045959, +25.009155, -21.072388, +83.297729
1491873199.446373, 1491873199.448792, -0.825073, +1.141479, -0.045959, +23.681641, -31.860352, +84.243774
1491873199.449067, 1491873199.451497, -0.825073, +1.141479, -0.045959, +23.681641, -31.860352, +76.858521
1491873199.451771, 1491873199.454199, -0.778198, +1.036377, -0.051270, +22.537231, -41.168213, +76.858521
1491873199.454473, 1491873199.456895, -0.792664, +1.036377, -0.051270, +22.537231, -41.168213, +70.129395
1491873199.457170, 1491873199.459602, -0.792664, +1.036377, -0.051270, +21.453857, -49.255371, +70.129395
1491873199.459877, 1491873199.462194, -0.792664, +1.036377, -0.051270, +21.453857, -57.067871, +63.415527
1491873199.462460, 1491873199.464756, -0.718506, +0.981995, -0.020325, +19.378662, -55.023193, +63.415527
1491873199.465023, 1491873199.467321, -0.718506, +0.981995, -0.020325, +19.378662, -55.023193, +56.533813
1491873199.467587, 1491873199.469886, -0.718506, +0.981995, -0.020325, +17.181396, -57.647705, +56.533813
1491873199.470328, 1491873199.472751, -0.718506, +0.981995, -0.020325, +17.181396, -57.647705, +50.109863
1491873199.473027, 1491873199.475449, -0.625854, +0.935303, +0.013367, +14.862061, -58.303833, +50.109863
1491873199.475723, 1491873199.478146, -0.625854, +0.935303, +0.013367, +14.862061, -58.303833, +44.448853
1491873199.478420, 1491873199.480895, -0.625854, +0.935303, +0.013367, +13.046265, -57.373047, +44.448853
1491873199.481168, 1491873199.483595, -0.625854, +0.935303, +0.060242, +13.046265, -55.923462, +38.436890
1491873199.483868, 1491873199.486290, -0.527710, +0.893555, +0.046875, +11.932373, -55.923462, +38.436890
1491873199.486565, 1491873199.488993, -0.527710, +0.893555, +0.046875, +8.026123, -53.344727, +32.333374
1491873199.489265, 1491873199.491700, -0.527710, +0.893555, +0.046875, +11.154175, -53.344727, +32.333374
1491873199.491974, 1491873199.494393, -0.527710, +0.886780, +0.088989, +10.208130, -49.316406, +25.497437
1491873199.494667, 1491873199.497092, -0.444214, +0.886780, +0.088989, +10.208130, -49.316406, +25.497437
1491873199.497367, 1491873199.499783, -0.444214, +0.886780, +0.088989, +9.582520, -44.403076, +18.981934
1491873199.500095, 1491873199.502395, -0.444214, +0.886780, +0.088989, +9.582520, -44.403076, +18.981934
1491873199.502662, 1491873199.504961, -0.392212, +0.918640, +0.101990, +8.743286, -39.443970, +12.176514
1491873199.505226, 1491873199.507524, -0.392212, +0.918640, +0.101990, +8.743286, -39.443970, +12.176514
1491873199.507790, 1491873199.510131, -0.392212, +0.918640, +0.101990, +8.239746, -35.095215, +5.371094
1491873199.510402, 1491873199.512819, -0.392212, +0.918640, +0.101990, +8.239746, -35.095215, +5.371094
1491873199.513089, 1491873199.515506, -0.328125, +0.984009, +0.024353, +7.843018, -31.387329, -2.120972
1491873199.515775, 1491873199.518200, -0.328125, +0.984009, +0.024353, +7.843018, -31.387329, -2.120972
1491873199.518471, 1491873199.520898, -0.328125, +0.984009, +0.024353, +6.851196, -25.772095, -8.895874
1491873199.521168, 1491873199.523595, -0.328125, +0.984009, +0.024353, +6.851196, -25.772095, -8.895874
1491873199.523864, 1491873199.526288, -0.284729, +1.033081, -0.025818, +5.599976, -18.707275, -15.350342
1491873199.526559, 1491873199.528987, -0.284729, +1.033081, -0.025818, +5.599976, -18.707275, -15.350342
1491873199.529257, 1491873199.531697, -0.284729, +1.033081, -0.025818, +4.287720, -10.375977, -21.911621
1491873199.531969, 1491873199.534385, -0.284729, +1.033081, -0.072693, +4.287720, -10.375977, -21.911621
1491873199.534658, 1491873199.537077, -0.291870, +1.051758, -0.077820, +3.677368, -0.778198, -27.740479
1491873199.537346, 1491873199.539772, -0.291870, +1.051758, -0.077820, +3.677368, -0.778198, -27.740479
1491873199.540081, 1491873199.542506, -0.291870, +1.051758, -0.077820, +2.685547, +8.377075, -33.706665
1491873199.542775, 1491873199.545202, -0.291870, +1.072266, -0.119202, +2.685547, +8.377075, -33.706665
1491873199.545471, 1491873199.547895, -0.380493, +1.072266, -0.119202, +1.922607, +15.457153, -39.459229
1491873199.548169, 1491873199.550582, -0.380493, +1.072266, -0.119202, +1.922607, +15.457153, -39.459229
1491873199.550848, 1491873199.553149, -0.380493, +1.072266, -0.119202, +1.632690, +21.133423, -45.486450
1491873199.553413, 1491873199.555708, -0.519470, +1.048645, -0.093201, +1.632690, +21.133423, -45.486450
1491873199.555971, 1491873199.558271, -0.519470, +1.048645, -0.093201, +0.289917, +25.100708, -51.483154
1491873199.558536, 1491873199.560896, -0.519470, +1.048645, -0.093201, +0.289917, +25.100708, -51.483154
1491873199.561161, 1491873199.563451, -0.519470, +1.048645, -0.093201, +0.411987, +27.709961, -59.173584
1491873199.563716, 1491873199.566017, -0.639954, +1.055969, -0.057312, +0.411987, +27.709961, -59.173584
1491873199.566280, 1491873199.568577, -0.639954, +1.055969, -0.057312, +0.701904, +29.785156, -65.429688
1491873199.568842, 1491873199.571218, -0.639954, +1.055969, -0.057312, +0.701904, +29.785156, -65.429688
1491873199.571492, 1491873199.573914, -0.639954, +1.055969, -0.057312, +1.388550, +28.472900, -71.075439
1491873199.574292, 1491873199.576716, -0.666504, +1.088928, -0.108032, +1.388550, +28.472900, -71.075439
1491873199.576987, 1491873199.579406, -0.666504, +1.088928, -0.108032, +1.388550, +23.223877, -75.103760
1491873199.579678, 1491873199.582123, -0.666504, +1.088928, -0.108032, +1.388550, +23.223877, -75.103760
1491873199.582395, 1491873199.584810, -0.666504, +1.088928, -0.108032, -0.167847, +16.250610, -75.729370
1491873199.585083, 1491873199.587508, -0.556641, +1.149536, -0.086426, -0.167847, +16.250610, -75.729370
1491873199.587782, 1491873199.590203, -0.556641, +1.149536, -0.086426, -2.731323, +8.728027, -75.424194
1491873199.590470, 1491873199.592895, -0.556641, +1.149536, -0.086426, -2.731323, +8.728027, -75.424194
1491873199.593163, 1491873199.595583, -0.556641, +1.149536, +0.002380, -4.714966, +1.342773, -75.729370
1491873199.595850, 1491873199.598270, -0.388550, +1.166931, +0.002380, -4.714966, +1.342773, -75.729370
1491873199.598541, 1491873199.600977, -0.388550, +1.166931, +0.002380, -4.821777, -9.689331, -69.900513
1491873199.601246, 1491873199.603672, -0.388550, +1.166931, +0.002380, -4.821777, -9.689331, -69.900513
1491873199.603942, 1491873199.606362, -1.419800, +0.644531, -0.787354, +17.654419, -45.120239, -62.301636
1491873199.606635, 1491873199.609062, -1.416870, +0.644531, -0.787354, +17.654419, -45.120239, -81.832886
1491873199.609336, 1491873199.611686, -1.416870, +0.644531, -0.787354, +40.847778, -74.813843, -78.842163
1491873199.611954, 1491873199.614247, -1.416870, +0.644531, -0.787354, +40.847778, -74.813843, -71.029663
1491873199.614513, 1491873199.616812, -1.964172, +1.961792, -0.219727, +33.691406, -88.409424, -71.868896
1491873199.617076, 1491873199.619374, -1.964172, +1.961792, -0.219727, +33.691406, -88.409424, -71.868896
1491873199.619639, 1491873199.622096, -1.964172, +1.961792, -0.219727, -16.326904, -109.939575, -60.852051
1491873199.622369, 1491873199.624794, -1.964172, +1.961792, -0.219727, -16.326904, -109.939575, -21.789551
1491873199.625068, 1491873199.627494, -0.345703, +2.372864, +1.076294, -59.494019, -127.578735, -21.514893
1491873199.627767, 1491873199.630204, -0.345703, +2.372864, +1.076294, -59.494019, -127.578735, -9.796143
1491873199.630477, 1491873199.632902, -0.345703, +2.372864, +1.076294, -14.160156, -120.529175, -10.406494
1491873199.633175, 1491873199.635600, -0.345703, +2.372864, +1.076294, -14.160156, -120.529175, -33.370972
1491873199.635872, 1491873199.638301, +0.863892, +0.925415, -0.570190, +31.433105, -100.082397, -33.370972
1491873199.638574, 1491873199.641008, +0.863892, +0.925415, -0.570190, +31.433105, -100.082397, -24.017334
1491873199.641282, 1491873199.643705, +0.863892, +0.925415, -0.570190, +33.401489, -54.763794, -24.017334
1491873199.643980, 1491873199.646406, +0.863892, +1.581665, -0.543640, +33.401489, +7.736206, -20.599365
1491873199.646677, 1491873199.649095, +3.050354, +1.580933, -0.543640, +16.265869, +4.425049, -20.599365
1491873199.649365, 1491873199.651805, +3.050354, +1.580933, -0.543640, +16.265869, +17.196655, -39.962769
1491873199.652076, 1491873199.654506, +3.050354, +1.580933, -0.543640, -3.479004, +17.196655, -39.962769
1491873199.654777, 1491873199.657201, +1.193481, +1.221497, -1.131775, -7.385254, +25.558472, -38.589478
1491873199.657470, 1491873199.659896, +1.193481, +1.221497, -1.131775, -5.554199, +25.558472, -38.589478
1491873199.660172, 1491873199.662476, +1.193481, +1.221497, -1.131775, +6.164551, +39.566040, -30.944824
1491873199.662736, 1491873199.665032, +1.193481, +1.221497, -1.131775, +5.172729, +39.566040, -30.944824
1491873199.665290, 1491873199.667590, +0.041382, +1.141479, -0.790283, +5.172729, +38.574219, -25.726318
1491873199.667854, 1491873199.670154, +0.041382, +1.141479, -0.790283, +17.059326, +38.574219, -25.726318
1491873199.670420, 1491873199.672721, +0.041382, +1.141479, -0.790283, +17.059326, +30.761719, -21.682739
1491873199.672988, 1491873199.675284, +0.041382, +1.141479, -0.790283, +22.460938, +29.434204, -21.682739
1491873199.675649, 1491873199.677948, +0.115540, +1.294189, -0.045044, +22.460938, +17.715454, -16.784668
1491873199.678214, 1491873199.680553, +0.115540, +1.294189, -0.045044, +22.628784, +19.332886, -16.784668
1491873199.680829, 1491873199.683253, +0.115540, +1.294189, -0.045044, +22.628784, +15.426636, -9.994507
1491873199.683525, 1491873199.685945, +0.115540, +1.294189, -0.045044, +17.990112, +13.839722, -9.994507
1491873199.686217, 1491873199.688644, +0.981445, +2.003906, +0.290405, +17.990112, +27.648926, -8.682251
1491873199.688914, 1491873199.691347, +0.981445, +2.003906, +0.290405, +11.306763, +27.648926, -8.682251
1491873199.691618, 1491873199.694044, +0.981445, +2.003906, +0.290405, +3.494263, +49.896240, -23.010254
1491873199.694314, 1491873199.696732, +0.981445, +2.003906, +0.102905, +2.883911, +49.896240, -23.010254
1491873199.697002, 1491873199.699427, +1.109070, +3.091187, +0.098145, +2.883911, +61.355591, -42.297363
1491873199.699695, 1491873199.702127, +1.109070, +3.091187, +0.098145, +1.907349, +61.355591, -42.297363
1491873199.702395, 1491873199.704815, +1.109070, +3.091187, +0.098145, +6.027222, +53.344727, -61.401367
1491873199.705084, 1491873199.707504, +1.109070, +2.942139, -0.610657, +6.027222, +53.344727, -61.401367
1491873199.707776, 1491873199.710206, +1.257385, +2.942139, -0.610657, +1.617432, +41.641235, -74.737549
1491873199.710479, 1491873199.712900, +1.257385, +2.942139, -0.610657, +1.617432, +41.641235, -74.737549
1491873199.713170, 1491873199.715595, +1.257385, +2.942139, -0.610657, -6.530762, +39.352417, -84.411621
1491873199.715865, 1491873199.718286, +0.335449, +1.367432, +0.161316, -6.530762, +39.352417, -84.411621
1491873199.718555, 1491873199.720953, +0.335449, +1.367432, +0.161316, -8.605957, +40.100098, -87.310791
1491873199.721219, 1491873199.723522, +0.335449, +1.367432, +0.161316, -8.605957, +40.100098, -87.310791
1491873199.723787, 1491873199.726078, +0.335449, +1.367432, +0.161316, -3.158569, +31.753540, -87.341309
1491873199.726343, 1491873199.728635, -0.487610, +0.579529, +0.201416, -3.158569, +31.753540, -87.341309
1491873199.728900, 1491873199.731312, -0.487610, +0.579529, +0.201416, +1.647949, +17.486572, -87.493896
1491873199.731584, 1491873199.734008, -0.487610, +0.579529, +0.201416, +1.647949, +17.486572, -87.493896
1491873199.734279, 1491873199.736711, -0.487610, +0.579529, +0.201416, +3.738403, +9.094238, -83.953857
1491873199.736980, 1491873199.739403, -0.272644, +0.622925, -0.428650, +3.738403, +9.094238, -83.953857
1491873199.739671, 1491873199.742105, -0.272644, +0.622925, -0.428650, +1.617432, +9.429932, -77.163696
1491873199.742374, 1491873199.744802, -0.272644, +0.622925, -0.428650, +1.617432, +9.429932, -77.163696
1491873199.745070, 1491873199.747493, -0.272644, +0.622925, -0.569275, -1.220703, +15.380859, -71.548462
1491873199.747765, 1491873199.750191, -0.346069, +0.922485, -0.599670, -1.220703, +15.380859, -71.548462
1491873199.750463, 1491873199.752885, -0.346069, +0.922485, -0.599670, -4.348755, +14.938354, -66.757202
1491873199.753157, 1491873199.755578, -0.346069, +0.922485, -0.599670, -4.348755, +14.938354, -66.757202
1491873199.755848, 1491873199.758273, -0.346069, +0.977600, -0.371338, -7.049561, +5.783081, -60.424805
1491873199.758542, 1491873199.760975, -0.593811, +0.977600, -0.371338, -7.049561, +5.783081, -60.424805
1491873199.761245, 1491873199.763667, -0.593811, +0.977600, -0.371338, -9.109497, -3.082275, -53.253174
1491873199.763935, 1491873199.766362, -0.593811, +0.977600, -0.371338, -9.109497, -3.082275, -53.253174
1491873199.766631, 1491873199.769052, -0.538879, +0.978516, -0.332336, -11.276245, -8.468628, -46.264648
1491873199.769324, 1491873199.771675, -0.538879, +0.978516, -0.332336, -11.276245, -8.468628, -46.264648
1491873199.771938, 1491873199.774240, -0.538879, +0.978516, -0.332336, -12.405396, -11.917114, -39.916992
1491873199.774507, 1491873199.776806, -0.538879, +0.978516, -0.332336, -12.405396, -11.917114, -39.916992
1491873199.777071, 1491873199.779374, -0.344788, +0.980713, -0.210022, -12.802124, -13.076782, -34.057617
1491873199.779742, 1491873199.782188, -0.344788, +0.980713, -0.210022, -12.802124, -13.076782, -34.057617
1491873199.782462, 1491873199.784885, -0.344788, +0.980713, -0.210022, -12.649536, -12.252808, -28.579712
1491873199.785159, 1491873199.787586, -0.344788, +0.980713, -0.210022, -12.649536, -12.252808, -28.579712
1491873199.787858, 1491873199.790291, -0.286194, +1.012207, -0.084595, -12.771606, -9.017944, -24.734497
1491873199.790563, 1491873199.792989, -0.286194, +1.012207, -0.084595, -12.771606, -9.017944, -24.734497
1491873199.793261, 1491873199.795688, -0.286194, +1.012207, -0.084595, -12.985229, -4.684448, -21.194458
1491873199.795960, 1491873199.798384, -0.286194, +1.012207, -0.031860, -12.985229, -4.684448, -17.288208
1491873199.798656, 1491873199.801048, -0.280884, +0.998291, -0.031860, -12.649536, -0.595093, -18.112183
1491873199.801314, 1491873199.803611, -0.280884, +0.998291, -0.031860, -12.649536, -0.595093, -14.205933
1491873199.803876, 1491873199.806172, -0.280884, +0.998291, -0.031860, -10.498047, +2.746582, -14.770508
1491873199.806435, 1491873199.808736, -0.280884, +0.951416, -0.014832, -10.498047, +2.746582, -14.770508
1491873199.809000, 1491873199.811470, -0.233093, +0.959656, -0.014832, -7.751465, +6.301880, -12.115479
1491873199.811739, 1491873199.814161, -0.233093, +0.959656, -0.014832, -7.751465, +6.301880, -8.209229
1491873199.814427, 1491873199.816848, -0.233093, +0.959656, -0.014832, -4.913330, +9.124756, -10.650635
1491873199.817117, 1491873199.819538, -0.163696, +1.044250, +0.011536, -4.913330, +9.124756, -10.650635
1491873199.819807, 1491873199.822123, -0.163696, +1.044250, +0.011536, -2.883911, +11.489868, -9.948730
1491873199.822385, 1491873199.824682, -0.163696, +1.044250, +0.011536, -2.883911, +11.489868, -9.948730
1491873199.824941, 1491873199.827232, -0.163696, +1.044250, +0.011536, -1.007080, +13.671875, -9.414673
1491873199.827494, 1491873199.829793, -0.141357, +1.093140, -0.039917, -1.007080, +13.671875, -9.414673
1491873199.830091, 1491873199.832513, -0.141357, +1.093140, -0.039917, +1.144409, +14.785767, -9.353638
1491873199.832781, 1491873199.835210, -0.141357, +1.093140, -0.039917, +1.144409, +14.785767, -9.353638
1491873199.835478, 1491873199.837903, -0.141357, +1.093140, -0.039917, +2.120972, +14.175415, -10.284424
1491873199.838177, 1491873199.840605, -0.165161, +1.108521, -0.135498, +2.120972, +14.175415, -10.284424
1491873199.840875, 1491873199.843301, -0.165161, +1.108521, -0.135498, +3.219604, +11.749268, -10.986328
1491873199.843570, 1491873199.845997, -0.165161, +1.108521, -0.135498, +3.219604, +11.749268, -11.764526
1491873199.846267, 1491873199.848689, -0.165161, +1.108521, -0.135498, +3.585815, +8.743286, -11.764526
1491873199.848957, 1491873199.851395, -0.207458, +1.049561, -0.182190, +3.585815, +8.743286, -12.069702
1491873199.851666, 1491873199.854090, -0.207458, +1.049561, -0.182190, +3.921509, +5.096436, -12.069702
1491873199.854359, 1491873199.856780, -0.207458, +1.049561, -0.182190, +3.921509, +1.190186, -11.642456
1491873199.857047, 1491873199.859475, -0.207458, +1.002686, -0.162964, +4.806519, +1.296997, -11.642456
1491873199.859743, 1491873199.862066, -0.236206, +1.022278, -0.162964, +4.806519, -2.609253, -10.955811
1491873199.862326, 1491873199.864627, -0.236206, +1.022278, -0.162964, +5.157471, -2.853394, -10.955811
1491873199.864886, 1491873199.867182, -0.236206, +1.022278, -0.162964, +5.157471, -2.853394, -10.787964
1491873199.867441, 1491873199.869739, -0.236206, +1.018982, -0.189331, +4.531860, -5.981445, -10.787964
1491873199.870000, 1491873199.872427, -0.233826, +1.018982, -0.189331, +4.531860, -5.981445, -10.726929
1491873199.872695, 1491873199.875112, -0.233826, +1.018982, -0.189331, +3.753662, -8.102417, -10.726929
1491873199.875378, 1491873199.877802, -0.233826, +1.018982, -0.189331, +3.753662, -8.102417, -10.437012
1491873199.878070, 1491873199.880508, -0.205811, +0.972656, -0.218079, +2.639771, -8.804321, -10.437012
1491873199.880780, 1491873199.883202, -0.205811, +0.972656, -0.218079, +2.639771, -8.804321, -10.375977
1491873199.883471, 1491873199.885900, -0.205811, +0.972656, -0.218079, +1.510620, -9.155273, -10.375977
1491873199.886279, 1491873199.888700, -0.205811, +0.972656, -0.218079, +1.510620, -8.758545, -10.498047
1491873199.888968, 1491873199.891399, -0.192078, +0.960754, -0.210938, +0.732422, -8.758545, -10.498047
1491873199.891667, 1491873199.894094, -0.192078, +0.960754, -0.210938, -0.625610, -7.980347, -10.314941
1491873199.894362, 1491873199.896787, -0.192078, +0.960754, -0.210938, -0.625610, -7.980347, -10.314941
1491873199.897057, 1491873199.899475, -0.192078, +0.960754, -0.210938, -2.166748, -6.729126, -10.604858
1491873199.899744, 1491873199.902184, -0.179626, +0.981079, -0.195007, -2.166748, -6.729126, -10.604858
1491873199.902454, 1491873199.904877, -0.179626, +0.981079, -0.195007, -3.906250, -4.577637, -10.742188
1491873199.905145, 1491873199.907574, -0.179626, +0.981079, -0.195007, -3.906250, -4.577637, -10.742188
1491873199.907841, 1491873199.910306, -0.179626, +1.027954, -0.165894, -5.905151, -2.441406, -10.665894
1491873199.910569, 1491873199.912865, -0.169556, +1.005798, -0.165894, -5.905151, -2.441406, -10.665894
1491873199.913125, 1491873199.915430, -0.169556, +1.005798, -0.165894, -7.507324, -1.007080, -10.833740
1491873199.915689, 1491873199.917984, -0.169556, +1.005798, -0.165894, -7.507324, -1.007080, -10.833740
1491873199.918244, 1491873199.920585, -0.169556, +1.024658, -0.166626, -8.300781, +0.915527, -11.703491
1491873199.920854, 1491873199.923289, -0.148499, +1.024658, -0.166626, -8.300781, +0.915527, -11.703491
1491873199.923560, 1491873199.925987, -0.148499, +1.024658, -0.166626, -8.880615, +3.433228, -13.336182
1491873199.926256, 1491873199.928684, -0.148499, +1.024658, -0.166626, -8.880615, +3.433228, -13.336182
1491873199.928952, 1491873199.931372, -0.179260, +1.005981, -0.137695, -8.865356, +5.020142, -14.282227
1491873199.931641, 1491873199.934070, -0.179260, +1.005981, -0.137695, -8.865356, +5.020142, -14.282227
1491873199.934337, 1491873199.936764, -0.179260, +1.005981, -0.137695, -8.468628, +6.195068, -14.511108
1491873199.937033, 1491873199.939449, -0.179260, +1.005981, -0.137695, -8.468628, +6.195068, -14.511108
1491873199.939716, 1491873199.942154, -0.210938, +0.997925, -0.105103, -8.514404, +6.484985, -14.877319
1491873199.942425, 1491873199.944850, -0.210938, +0.997925, -0.105103, -8.514404, +6.484985, -14.877319
1491873199.945120, 1491873199.947541, -0.210938, +0.997925, -0.105103, -8.728027, +5.981445, -15.258789
1491873199.947810, 1491873199.950285, -0.210938, +0.997925, -0.105103, -8.728027, +5.981445, -15.258789
1491873199.950554, 1491873199.952983, -0.204895, +0.994629, -0.120483, -9.048462, +6.149292, -16.052246
1491873199.953252, 1491873199.955673, -0.204895, +0.994629, -0.120483, -9.048462, +6.149292, -16.052246
1491873199.955944, 1491873199.958369, -0.204895, +0.994629, -0.120483, -9.994507, +5.462646, -16.937256
1491873199.958637, 1491873199.961049, -0.204895, +0.994629, -0.137878, -9.994507, +5.462646, -16.937256
1491873199.961311, 1491873199.963611, -0.172668, +0.992432, -0.137878, -11.138916, +4.714966, -17.913818
1491873199.963874, 1491873199.966180, -0.172668, +0.992432, -0.137878, -11.138916, +4.714966, -17.913818
1491873199.966443, 1491873199.968741, -0.172668, +0.992432, -0.137878, -11.703491, +4.547119, -19.332886
1491873199.969005, 1491873199.971387, -0.172668, +0.974670, -0.165894, -11.703491, +4.547119, -19.332886
1491873199.971659, 1491873199.974084, -0.181274, +0.974670, -0.165894, -12.466431, +4.943848, -20.324707
1491873199.974355, 1491873199.976781, -0.181274, +0.974670, -0.165894, -12.466431, +4.943848, -20.324707
1491873199.977054, 1491873199.979482, -0.181274, +0.974670, -0.165894, -13.320923, +5.386353, -21.133423
1491873199.979753, 1491873199.982189, -0.213867, +0.971375, -0.181274, -13.320923, +5.386353, -21.133423
1491873199.982459, 1491873199.984885, -0.213867, +0.971375, -0.181274, -14.175415, +4.959106, -22.048950
1491873199.985155, 1491873199.987586, -0.213867, +0.971375, -0.181274, -14.175415, +4.959106, -22.048950
1491873199.987857, 1491873199.990290, -0.213867, +0.971375, -0.181274, -14.892578, +4.959106, -23.529053
1491873199.990667, 1491873199.993091, -0.192078, +0.982544, -0.164978, -14.892578, +4.959106, -23.529053
1491873199.993363, 1491873199.995784, -0.192078, +0.982544, -0.164978, -16.098022, +4.760742, -24.322510
1491873199.996055, 1491873199.998480, -0.192078, +0.982544, -0.164978, -16.098022, +4.760742, -25.726318
1491873199.998750, 1491873200.001188, -0.192078, +0.982544, -0.118103, -18.066406, +4.608154, -25.726318
1491873200.001462, 1491873200.003882, -0.195374, +1.051208, -0.131653, -18.066406, +4.608154, -27.297974
1491873200.004153, 1491873200.006575, -0.195374, +1.051208, -0.131653, -20.050049, +3.768921, -27.297974
1491873200.006845, 1491873200.009268, -0.195374, +1.051208, -0.131653, -20.050049, +3.768921, -28.686523
1491873200.009536, 1491873200.011878, -0.195374, +1.063477, -0.144104, -21.804810, +2.960205, -28.686523
1491873200.012144, 1491873200.014448, -0.146484, +1.063477, -0.144104, -21.804810, +2.960205, -31.051636
1491873200.014711, 1491873200.017011, -0.146484, +1.063477, -0.144104, -22.506714, +3.112793, -31.051636
1491873200.017273, 1491873200.019574, -0.146484, +1.063477, -0.144104, -22.506714, +3.112793, -33.889771
1491873200.019838, 1491873200.022314, -0.099609, +1.062012, -0.208557, -22.583008, +3.601074, -33.889771
1491873200.022588, 1491873200.025011, -0.130188, +1.062012, -0.208557, -22.583008, +3.601074, -37.689209
1491873200.025282, 1491873200.027703, -0.130188, +1.062012, -0.208557, -22.552490, +3.570557, -37.689209
1491873200.027974, 1491873200.030406, -0.130188, +1.062012, -0.208557, -22.552490, +7.476807, -40.573120
1491873200.030676, 1491873200.033101, -0.127625, +1.108337, -0.216797, -23.956299, +3.906250, -40.573120
1491873200.033372, 1491873200.035801, -0.127625, +1.108337, -0.216797, -23.956299, +4.043579, -43.258667
1491873200.036072, 1491873200.038494, -0.127625, +1.108337, -0.216797, -25.039673, +4.043579, -43.258667
1491873200.038765, 1491873200.041206, -0.127625, +1.108337, -0.216797, -25.039673, +4.882812, -45.959473
1491873200.041475, 1491873200.043903, -0.165710, +1.055969, -0.134583, -25.512695, +4.882812, -45.959473
1491873200.044173, 1491873200.046600, -0.165710, +1.055969, -0.134583, -25.512695, +4.440308, -49.499512
1491873200.046870, 1491873200.049291, -0.165710, +1.055969, -0.134583, -26.382446, +4.440308, -49.499512
1491873200.049563, 1491873200.051906, -0.165710, +1.055969, -0.101807, -25.421143, +3.738403, -52.886963
1491873200.052170, 1491873200.054466, -0.101074, +1.007080, -0.101807, -25.421143, +3.738403, -52.886963
1491873200.054733, 1491873200.057034, -0.101074, +1.007080, -0.101807, -25.421143, +5.035400, -57.540894
1491873200.057299, 1491873200.059597, -0.101074, +1.007080, -0.101807, -24.871826, +5.035400, -57.540894
1491873200.059861, 1491873200.062195, -0.101074, +1.007080, -0.239685, -24.871826, +5.249023, -61.370850
1491873200.062460, 1491873200.064763, -0.135132, +1.031067, -0.239685, -25.451660, +5.249023, -61.370850
1491873200.065026, 1491873200.067320, -0.135132, +1.031067, -0.239685, -25.451660, +3.265381, -65.017700
1491873200.067583, 1491873200.069877, -0.135132, +1.031067, -0.239685, -25.588989, +3.265381, -65.017700
1491873200.070161, 1491873200.072594, -0.135132, +1.077942, -0.130554, -25.588989, +0.061035, -69.015503
1491873200.072868, 1491873200.075290, -0.244995, +1.047363, -0.130554, -26.016235, +0.061035, -69.015503
1491873200.075562, 1491873200.077990, -0.244995, +1.047363, -0.130554, -26.016235, -3.860474, -72.662354
1491873200.078261, 1491873200.080693, -0.244995, +1.047363, -0.130554, -26.031494, -3.860474, -72.662354
1491873200.080965, 1491873200.083390, -0.323914, +1.068970, -0.030212, -26.031494, -8.300781, -76.110840
1491873200.083664, 1491873200.086088, -0.323914, +1.068970, -0.030212, -26.916504, -8.300781, -76.110840
1491873200.086361, 1491873200.088788, -0.323914, +1.068970, -0.030212, -29.724121, -12.741089, -79.620361
1491873200.089063, 1491873200.091497, -0.323914, +1.068970, -0.030212, -29.724121, -12.741089, -79.620361
1491873200.091771, 1491873200.094199, -0.327759, +1.057434, -0.080017, -30.029297, -17.242432, -81.329346
1491873200.094580, 1491873200.097002, -0.327759, +1.057434, -0.080017, -30.029297, -17.242432, -81.329346
1491873200.097277, 1491873200.099700, -0.327759, +1.057434, -0.080017, -27.572632, -20.797729, -83.526611
1491873200.099975, 1491873200.102293, -0.327759, +1.057434, -0.080017, -27.572632, -20.797729, -83.526611
1491873200.102560, 1491873200.104858, -0.345154, +1.072815, -0.127258, -24.780273, -23.071289, -85.678101
1491873200.105123, 1491873200.107426, -0.345154, +1.072815, -0.127258, -24.780273, -23.071289, -85.678101
1491873200.107692, 1491873200.109993, -0.345154, +1.072815, -0.127258, -23.406982, -27.038574, -88.027954
1491873200.110375, 1491873200.112802, -0.345154, +1.072815, -0.127258, -23.406982, -27.038574, -88.027954
1491873200.113076, 1491873200.115501, -0.370422, +1.222595, -0.114807, -21.453857, -31.661987, -90.927124
1491873200.115777, 1491873200.118198, -0.370422, +1.222595, -0.114807, -21.453857, -31.661987, -90.927124
1491873200.118471, 1491873200.120912, -0.370422, +1.222595, -0.114807, -17.959595, -37.796021, -94.512939
1491873200.121185, 1491873200.123608, -0.370422, +1.343079, -0.174133, -17.959595, -37.796021, -94.512939
1491873200.123880, 1491873200.126301, -0.300476, +1.343079, -0.174133, -15.411377, -43.304443, -98.739624
1491873200.126575, 1491873200.128999, -0.300476, +1.343079, -0.174133, -15.411377, -43.304443, -98.739624
1491873200.129272, 1491873200.131702, -0.300476, +1.343079, -0.174133, -14.984131, -48.248291, -102.355957
1491873200.131975, 1491873200.134401, -0.113159, +1.447815, -0.161682, -14.984131, -48.248291, -102.355957
1491873200.134675, 1491873200.137099, -0.113159, +1.447815, -0.161682, -17.456055, -52.230835, -106.399536
1491873200.137373, 1491873200.139795, -0.113159, +1.447815, -0.161682, -17.456055, -52.230835, -106.399536
1491873200.140077, 1491873200.142373, -0.113159, +1.447815, -0.161682, -23.132324, -50.872803, -111.633301
1491873200.142642, 1491873200.144939, -0.121033, +1.168030, -0.245544, -23.132324, -50.872803, -111.633301
1491873200.145208, 1491873200.147503, -0.121033, +1.168030, -0.245544, -26.611328, -46.905518, -114.486694
1491873200.147770, 1491873200.150112, -0.121033, +1.168030, -0.245544, -26.611328, -46.905518, -114.486694
1491873200.150387, 1491873200.152809, -0.121033, +1.168030, -0.245544, -26.382446, -48.004150, -114.791870
1491873200.153082, 1491873200.155504, -0.496948, +1.008911, -0.222839, -26.382446, -48.004150, -114.791870
1491873200.155776, 1491873200.158202, -0.496948, +1.008911, -0.222839, -26.473999, -50.033569, -113.006592
1491873200.158476, 1491873200.160944, -0.496948, +1.008911, -0.222839, -26.473999, -50.033569, -113.006592
1491873200.161220, 1491873200.163647, -0.496948, +1.008911, -0.051636, -27.328491, -51.132202, -111.679077
1491873200.163921, 1491873200.166342, -0.471313, +0.894653, -0.051636, -27.328491, -51.132202, -111.679077
1491873200.166616, 1491873200.169041, -0.471313, +0.894653, -0.051636, -26.412964, -49.026489, -110.275269
1491873200.169314, 1491873200.171754, -0.471313, +0.894653, -0.051636, -26.412964, -49.026489, -110.275269
1491873200.172027, 1491873200.174450, -0.471313, +0.907654, +0.040100, -25.390625, -45.562744, -108.596802
1491873200.174727, 1491873200.177143, -0.525330, +0.907654, +0.040100, -25.390625, -45.562744, -108.596802
1491873200.177419, 1491873200.179846, -0.525330, +0.907654, +0.040100, -26.016235, -42.633057, -108.337402
1491873200.180126, 1491873200.182424, -0.525330, +0.907654, +0.040100, -26.016235, -42.633057, -108.337402
1491873200.182692, 1491873200.184998, -0.534119, +0.978516, +0.120850, -27.069092, -42.022705, -107.650757
1491873200.185264, 1491873200.187558, -0.534119, +0.978516, +0.120850, -27.069092, -42.022705, -107.650757
1491873200.187825, 1491873200.190145, -0.534119, +0.978516, +0.120850, -28.259277, -40.832520, -106.765747
1491873200.190426, 1491873200.192737, -0.534119, +0.978516, +0.120850, -28.259277, -40.832520, -106.765747
1491873200.193003, 1491873200.195302, -0.537231, +1.188721, +0.121582, -28.366089, -39.199829, -107.727051
1491873200.195676, 1491873200.197974, -0.537231, +1.188721, +0.121582, -28.366089, -39.199829, -107.727051
1491873200.198241, 1491873200.200672, -0.537231, +1.188721, +0.121582, -29.861450, -38.970947, -109.649658
1491873200.200959, 1491873200.203264, -0.537231, +1.188721, +0.121582, -29.861450, -38.970947, -109.649658
1491873200.203533, 1491873200.205837, -0.371887, +1.500366, +0.095032, -32.165527, -40.054321, -112.976074
1491873200.206103, 1491873200.208397, -0.371887, +1.500366, +0.095032, -32.165527, -40.054321, -112.976074
1491873200.208663, 1491873200.211125, -0.371887, +1.500366, +0.095032, -36.682129, -39.505005, -116.653442
1491873200.211400, 1491873200.213817, -0.371887, +1.500366, +0.095032, -36.682129, -39.505005, -116.653442
1491873200.214093, 1491873200.216500, -0.145569, +1.452393, -0.024170, -42.037964, -35.446167, -120.651245
1491873200.216773, 1491873200.219185, -0.145569, +1.452393, -0.024170, -42.037964, -35.446167, -124.557495
1491873200.219457, 1491873200.221907, -0.145569, +1.452393, -0.024170, -44.372559, -30.014038, -124.877930
1491873200.222182, 1491873200.224605, -0.145569, +1.452393, -0.146851, -44.372559, -30.014038, -128.768921
1491873200.224878, 1491873200.227306, -0.320435, +1.164734, -0.146851, -45.227051, -25.787354, -128.768921
1491873200.227580, 1491873200.230002, -0.320435, +1.164734, -0.146851, -45.227051, -25.787354, -130.279541
1491873200.230344, 1491873200.232769, -0.320435, +1.164734, -0.146851, -46.188354, -24.719238, -130.279541
1491873200.233041, 1491873200.235467, -0.601685, +0.836975, -0.157288, -46.188354, -24.719238, -131.027222
1491873200.235742, 1491873200.238169, -0.572021, +0.836975, -0.157288, -45.791626, -26.367188, -131.027222
1491873200.238443, 1491873200.240913, -0.572021, +0.836975, -0.157288, -45.791626, -28.961182, -130.004883
1491873200.241188, 1491873200.243619, -0.572021, +0.836975, -0.157288, -44.281006, -28.961182, -130.004883
1491873200.243893, 1491873200.246312, -0.659546, +0.572571, -0.127258, -44.281006, -30.776978, -129.348755
1491873200.246586, 1491873200.249013, -0.659546, +0.572571, -0.127258, -43.090820, -30.776978, -129.348755
1491873200.249287, 1491873200.251640, -0.659546, +0.572571, -0.127258, -39.184570, -31.295776, -127.624512
1491873200.251906, 1491873200.254208, -0.659546, +0.572571, -0.127258, -41.961670, -31.295776, -127.624512
1491873200.254473, 1491873200.256775, -0.723267, +0.397888, -0.060974, -41.961670, -31.158447, -125.244141
1491873200.257041, 1491873200.259332, -0.723267, +0.397888, -0.060974, -39.474487, -31.158447, -125.244141
1491873200.259599, 1491873200.261994, -0.723267, +0.397888, -0.060974, -39.474487, -31.707764, -124.389648
1491873200.262269, 1491873200.264704, -0.723267, +0.397888, -0.060974, -36.697388, -31.707764, -124.389648
1491873200.264977, 1491873200.267397, -0.837341, +0.651489, +0.041931, -32.791138, -33.309937, -122.650146
1491873200.267671, 1491873200.270108, -0.837341, +0.651489, +0.041931, -35.018921, -33.309937, -122.650146
1491873200.270383, 1491873200.272806, -0.837341, +0.651489, +0.041931, -35.400391, -37.231445, -120.986938
1491873200.273081, 1491873200.275502, -0.837341, +1.167114, +0.117554, -35.400391, -37.231445, -120.986938
1491873200.275776, 1491873200.278201, -0.766113, +1.133423, +0.117554, -37.078857, -40.954590, -120.513916
1491873200.278474, 1491873200.280906, -0.766113, +1.133423, +0.117554, -37.078857, -40.954590, -120.513916
1491873200.281180, 1491873200.283605, -0.766113, +1.133423, +0.117554, -38.452148, -43.533325, -121.826172
1491873200.283879, 1491873200.286307, -0.551514, +1.713318, +0.123596, -38.452148, -43.533325, -121.826172
1491873200.286581, 1491873200.288998, -0.551514, +1.713318, +0.123596, -40.985107, -44.631958, -124.481201
1491873200.289273, 1491873200.291724, -0.551514, +1.713318, +0.123596, -40.985107, -44.631958, -124.481201
1491873200.291998, 1491873200.294422, -0.551514, +1.713318, +0.123596, -44.754028, -44.998169, -130.920410
1491873200.294696, 1491873200.297121, -0.322266, +2.215759, +0.087524, -44.754028, -44.998169, -130.920410
1491873200.297395, 1491873200.299826, -0.322266, +2.215759, +0.087524, -48.141479, -44.998169, -139.724731
1491873200.300217, 1491873200.302517, -0.322266, +2.215759, +0.087524, -48.141479, -44.998169, -139.724731
1491873200.302784, 1491873200.305081, -0.322266, +2.215759, +0.087524, -51.391602, -44.906616, -147.628784
1491873200.305347, 1491873200.307653, -0.117737, +2.527039, +0.004395, -51.391602, -44.906616, -147.628784
1491873200.307920, 1491873200.310215, -0.117737, +2.527039, +0.004395, -53.894043, -43.716431, -154.434204
1491873200.310482, 1491873200.312784, -0.117737, +2.527039, +0.004395, -53.894043, -43.716431, -154.434204
1491873200.313051, 1491873200.315345, -0.117737, +2.527039, +0.004395, -55.679321, -39.901733, -159.866333
1491873200.315612, 1491873200.317904, +0.065002, +2.526123, -0.194092, -55.679321, -39.901733, -159.866333
1491873200.318170, 1491873200.320538, +0.065002, +2.526123, -0.194092, -57.434082, -34.439087, -162.261963
1491873200.320812, 1491873200.323241, +0.065002, +2.526123, -0.194092, -57.434082, -34.439087, -162.261963
1491873200.323515, 1491873200.325937, +0.065002, +2.526123, -0.263489, -57.647705, -27.297974, -163.040161
1491873200.326212, 1491873200.328642, -0.042297, +2.068176, -0.263489, -57.647705, -27.297974, -163.040161
1491873200.328915, 1491873200.331345, -0.042297, +2.068176, -0.263489, -54.611206, -21.072388, -164.047241
1491873200.331619, 1491873200.334046, -0.042297, +2.068176, -0.263489, -54.611206, -21.072388, -164.047241
1491873200.334320, 1491873200.336743, -0.042297, +1.531128, -0.311462, -51.193237, -18.280029, -163.635254
1491873200.337018, 1491873200.339442, -0.377197, +1.531128, -0.311462, -51.193237, -18.280029, -163.635254
1491873200.339718, 1491873200.342161, -0.377197, +1.531128, -0.311462, -46.356201, -19.393921, -162.399292
1491873200.342435, 1491873200.344857, -0.377197, +1.531128, -0.311462, -46.356201, -19.393921, -162.399292
1491873200.345131, 1491873200.347554, -0.644165, +1.220764, -0.289307, -40.863037, -19.042969, -161.376953
1491873200.347827, 1491873200.350286, -0.644165, +1.220764, -0.289307, -40.863037, -19.042969, -161.376953
1491873200.350553, 1491873200.352849, -0.644165, +1.220764, -0.289307, -34.301758, -14.938354, -160.659790
1491873200.353115, 1491873200.355418, -0.644165, +1.220764, -0.289307, -34.301758, -14.938354, -160.659790
1491873200.355684, 1491873200.357979, -0.778564, +1.064209, -0.117920, -29.006958, -4.989624, -158.325195
1491873200.358243, 1491873200.360578, -0.778564, +1.064209, -0.117920, -29.006958, -4.989624, -158.325195
1491873200.360851, 1491873200.363279, -0.778564, +1.064209, -0.117920, -24.826050, +8.010864, -155.029297
1491873200.363552, 1491873200.365973, -0.778564, +1.064209, -0.117920, -24.826050, +8.010864, -155.029297
1491873200.366245, 1491873200.368665, -0.822144, +0.839172, +0.163513, -22.781372, +17.715454, -151.824951
1491873200.368939, 1491873200.371374, -0.822144, +0.839172, +0.163513, -22.781372, +17.715454, -151.824951
1491873200.371649, 1491873200.374075, -0.822144, +0.839172, +0.163513, -21.408081, +26.809692, -143.844604
1491873200.374349, 1491873200.376782, -0.822144, +0.839172, +0.237854, -21.408081, +26.809692, -143.844604
1491873200.377055, 1491873200.379470, -0.658997, +0.683533, +0.237854, -17.807007, +36.727905, -128.570557
1491873200.379745, 1491873200.382179, -0.658997, +0.683533, +0.237854, -17.807007, +36.727905, -128.570557
1491873200.382453, 1491873200.384880, -0.658997, +0.683533, +0.237854, -9.567261, +60.104370, -107.528687
1491873200.385151, 1491873200.387574, -0.658997, +0.531372, +0.135681, -9.567261, +60.104370, -91.903687
1491873200.387845, 1491873200.390310, -0.678406, +0.531372, +0.135681, -4.180908, +103.332520, -90.911865
1491873200.390582, 1491873200.393010, -0.678406, +0.531372, +0.135681, -4.180908, +103.332520, -80.871582
1491873200.393283, 1491873200.395708, -0.678406, +0.531372, +0.135681, -11.169434, +136.505127, -80.871582
1491873200.395983, 1491873200.398413, -1.454407, +0.444763, +0.568359, -11.169434, +136.505127, -80.169678
1491873200.398687, 1491873200.401067, -1.454407, +0.444763, +0.568359, -29.373169, +118.133545, -80.169678
1491873200.401442, 1491873200.403739, -1.454407, +0.444763, +0.568359, -29.373169, +71.258545, -77.713013
1491873200.404006, 1491873200.406304, -1.454407, +0.444763, +0.568359, -29.190063, +73.684692, -77.713013
1491873200.406571, 1491873200.408865, -2.032288, +0.286194, +0.130920, -29.190063, +73.684692, -70.617676
1491873200.409131, 1491873200.411566, -2.032288, +0.286194, +0.130920, -26.473999, +51.879883, -70.617676
1491873200.411840, 1491873200.414267, -2.032288, +0.286194, +0.130920, -26.473999, +40.161133, -61.660767
1491873200.414540, 1491873200.416968, -2.032288, +0.286194, +0.130920, -29.907227, +42.816162, -61.660767
1491873200.417240, 1491873200.419668, -1.640808, +0.320251, +0.135864, -29.907227, +27.191162, -45.211792
1491873200.419941, 1491873200.422375, -1.640808, +0.320251, +0.135864, -30.288696, +26.855469, -45.211792
1491873200.422648, 1491873200.425069, -1.640808, +0.320251, +0.135864, -30.288696, +21.697998, -32.775879
1491873200.425343, 1491873200.427773, -1.640808, +0.179626, +0.015015, -29.312134, +21.697998, -32.775879
1491873200.428046, 1491873200.430503, -0.715759, +0.147766, +0.015015, -29.312134, +22.277832, -26.245117
1491873200.430769, 1491873200.433065, -0.715759, +0.147766, +0.015015, -28.991699, +22.277832, -26.245117
1491873200.433330, 1491873200.435634, -0.715759, +0.147766, +0.015015, -28.991699, +21.820068, -24.749756
1491873200.435899, 1491873200.438195, -0.340759, -0.363281, +0.017944, -28.686523, +21.820068, -24.749756
1491873200.438462, 1491873200.440824, -0.355408, -0.363281, +0.017944, -28.686523, +20.462036, -25.268555
1491873200.441098, 1491873200.443524, -0.355408, -0.363281, +0.017944, -23.956299, +20.462036, -25.268555
1491873200.443798, 1491873200.446221, -0.355408, -0.363281, +0.017944, -16.143799, +20.034790, -23.422241
1491873200.446496, 1491873200.448922, -0.336731, -0.401367, +0.102722, -19.088745, +20.034790, -23.422241
1491873200.449196, 1491873200.451540, -0.336731, -0.401367, +0.102722, -22.994995, +18.508911, -19.409180
1491873200.451807, 1491873200.454105, -0.336731, -0.401367, +0.102722, -22.109985, +18.508911, -19.409180
1491873200.454372, 1491873200.456670, -0.336731, -0.401367, +0.102722, -26.016235, -4.760742, -10.055542
1491873200.456935, 1491873200.459231, -0.649841, -0.293884, -0.110046, -23.773193, -4.760742, -10.055542
1491873200.459495, 1491873200.461944, -0.649841, -0.293884, -0.110046, -23.773193, -44.067383, +10.253906
1491873200.462218, 1491873200.464640, -0.649841, -0.293884, -0.110046, -17.959595, -44.067383, +10.253906
1491873200.464915, 1491873200.467339, -0.649841, -0.293884, -0.110046, -10.147095, -73.226929, +36.361694
1491873200.467613, 1491873200.470035, -0.035522, -0.030212, -0.263306, -8.804321, -73.226929, +36.361694
1491873200.470351, 1491873200.472775, -0.035522, -0.030212, -0.263306, +0.793457, -82.962036, +57.632446
1491873200.473046, 1491873200.475465, -0.035522, -0.030212, -0.263306, +0.793457, -82.962036, +57.632446
1491873200.475736, 1491873200.478165, -0.035522, -0.030212, -0.215881, +6.149292, -79.559326, +70.419312
1491873200.478438, 1491873200.480898, +0.711182, -0.136963, -0.215881, +6.149292, -79.559326, +70.419312
1491873200.481170, 1491873200.484511, +0.711182, -0.136963, -0.215881, +6.591797, -70.449829, +79.162598
1491873200.485340, 1491873200.488596, +0.711182, -0.136963, -0.215881, +6.591797, -62.377930, +85.601807
1491873200.489550, 1491873200.492629, +0.455750, -0.167175, +0.025085, +6.576538, -62.377930, +85.601807
1491873200.494776, 1491873200.498211, +0.455750, -0.167175, +0.025085, +8.560181, -58.532715, +101.287842
1491873200.498492, 1491873200.501040, +0.082397, -0.176880, +0.111877, +12.786865, -56.838989, +101.287842
1491873200.501328, 1491873200.504303, +0.082397, -0.176880, +0.111877, +16.693115, -57.266235, +112.533569
1491873200.504584, 1491873200.506895, +0.082397, -0.176880, +0.111877, +18.051147, -57.266235, +112.533569
1491873200.507170, 1491873200.509466, +0.130737, -0.118469, +0.073975, +23.208618, -59.280396, +124.328613
1491873200.509735, 1491873200.512044, +0.130737, -0.118469, +0.073975, +23.208618, -59.280396, +124.328613
1491873200.512443, 1491873200.514738, +0.130737, -0.118469, +0.073975, +26.565552, -60.089111, +135.314941
1491873200.515007, 1491873200.517301, +0.130737, -0.118469, +0.073975, +26.565552, -60.089111, +135.314941
1491873200.517569, 1491873200.519862, +0.308167, -0.025635, +0.062805, +30.471802, -58.715820, +143.875122
1491873200.520149, 1491873200.522445, +0.308167, -0.025635, +0.062805, +29.617310, -58.715820, +143.875122
1491873200.522713, 1491873200.525006, +0.308167, -0.025635, +0.062805, +33.523560, -54.809570, +151.367188
1491873200.525273, 1491873200.527561, +0.308167, -0.025635, +0.062805, +32.638550, -54.809570, +151.367188
1491873200.527827, 1491873200.530149, +0.354126, +0.072144, +0.081116, +32.638550, -46.997070, +158.370972
1491873200.530417, 1491873200.532713, +0.354126, +0.072144, +0.081116, +35.156250, -49.057007, +158.370972
1491873200.532980, 1491873200.535276, +0.354126, +0.072144, +0.081116, +35.156250, -41.244507, +164.505005
1491873200.535542, 1491873200.537836, +0.354126, +0.072144, +0.081116, +37.750244, -41.946411, +164.505005
1491873200.538103, 1491873200.540582, +0.360352, +0.179443, +0.076355, +37.750244, -41.946411, +169.448853
1491873200.540852, 1491873200.543148, +0.360352, +0.179443, +0.076355, +40.924072, -33.645630, +169.448853
1491873200.543415, 1491873200.545712, +0.360352, +0.179443, +0.076355, +40.924072, -33.645630, +173.934937
1491873200.545980, 1491873200.548277, +0.360352, +0.179443, +0.076355, +43.640137, -23.681641, +173.934937
1491873200.548544, 1491873200.550958, +0.322998, +0.282715, +0.088074, +43.640137, -23.681641, +178.283691
1491873200.551225, 1491873200.553526, +0.322998, +0.282715, +0.088074, +45.593262, -12.435913, +178.283691
1491873200.553793, 1491873200.556087, +0.322998, +0.282715, +0.088074, +45.593262, -12.435913, +182.205200
1491873200.556353, 1491873200.558644, +0.322998, +0.282715, +0.088074, +47.622681, -1.098633, +182.205200
1491873200.558909, 1491873200.561347, +0.257446, +0.356140, +0.099243, +47.622681, -1.098633, +186.584473
1491873200.561613, 1491873200.563911, +0.257446, +0.356140, +0.099243, +49.453735, +10.101318, +186.584473
1491873200.564178, 1491873200.566473, +0.257446, +0.356140, +0.099243, +49.453735, +10.101318, +190.917969
1491873200.566740, 1491873200.569031, +0.257446, +0.356140, +0.099243, +51.071167, +21.469116, +190.917969
1491873200.569299, 1491873200.571807, +0.212952, +0.424072, +0.084778, +51.071167, +21.469116, +194.915771
1491873200.572082, 1491873200.574496, +0.212952, +0.424072, +0.084778, +52.459717, +32.379150, +194.915771
1491873200.574769, 1491873200.577175, +0.212952, +0.424072, +0.084778, +52.459717, +32.379150, +198.211670
1491873200.577447, 1491873200.579854, +0.212952, +0.517822, +0.049438, +53.588867, +42.739868, +198.211670
1491873200.580136, 1491873200.582525, +0.152161, +0.518188, +0.049438, +53.588867, +42.739868, +201.690674
1491873200.582798, 1491873200.585185, +0.152161, +0.518188, +0.049438, +54.519653, +52.261353, +201.690674
1491873200.585458, 1491873200.587966, +0.152161, +0.518188, +0.049438, +54.519653, +60.073853, +204.757690
1491873200.588241, 1491873200.590710, +0.054932, +0.572571, +0.003662, +54.824829, +60.928345, +204.757690
1491873200.590986, 1491873200.593410, +0.054932, +0.572571, +0.003662, +54.824829, +67.443848, +207.504272
1491873200.593685, 1491873200.596110, +0.054932, +0.572571, +0.003662, +54.702759, +67.443848, +207.504272
1491873200.596384, 1491873200.598802, +0.054932, +0.572571, +0.003662, +54.702759, +71.685791, +209.960938
1491873200.599078, 1491873200.601441, -0.056580, +0.614502, -0.060791, +54.946899, +71.685791, +209.960938
1491873200.601710, 1491873200.604013, -0.056580, +0.614502, -0.060791, +54.946899, +73.501587, +212.524414
1491873200.604281, 1491873200.606578, -0.056580, +0.614502, -0.060791, +55.587769, +73.501587, +212.524414
1491873200.606845, 1491873200.609145, -0.056580, +0.614502, -0.060791, +55.587769, +71.563721, +215.423584
1491873200.609413, 1491873200.611786, -0.150146, +0.639587, -0.134216, +55.999756, +71.563721, +215.423584
1491873200.612203, 1491873200.616156, -0.150146, +0.639587, -0.134216, +56.121826, +66.650391, +217.636108
1491873200.616435, 1491873200.618733, -0.150146, +0.639587, -0.134216, +56.121826, +66.650391, +217.636108
1491873200.618999, 1491873200.621405, -0.198303, +0.643250, -0.178345, +56.152344, +60.287476, +220.306396
1491873200.621673, 1491873200.623973, -0.198303, +0.643250, -0.178345, +56.152344, +60.287476, +220.306396
1491873200.624239, 1491873200.626529, -0.198303, +0.643250, -0.178345, +56.900024, +52.612305, +222.503662
1491873200.626795, 1491873200.629081, -0.198303, +0.643250, -0.178345, +56.900024, +52.612305, +222.503662
1491873200.629348, 1491873200.631665, -0.171936, +0.685730, -0.186951, +57.022095, +45.013428, +224.655151
1491873200.631931, 1491873200.634231, -0.171936, +0.685730, -0.186951, +57.022095, +45.013428, +224.655151
1491873200.634498, 1491873200.636792, -0.171936, +0.685730, -0.186951, +57.388306, +37.368774, +226.715088
1491873200.637060, 1491873200.639350, -0.171936, +0.685730, -0.186951, +57.388306, +37.368774, +226.715088
