timestamp_before, timestamp_after, accel_x, accel_y, accel_z, gyro_x, gyro_y, gyro_z
1494288497.897630, 1494288497.899946, +0.042114, +1.260132, -0.189697, -3.311157, +0.015259, +5.004883
1494288497.900291, 1494288497.902592, +0.042114, +1.260132, -0.189697, -3.967285, -0.152588, +5.111694
1494288497.902851, 1494288497.905140, +0.008972, +0.989685, -0.167908, -3.967285, -0.152588, +5.111694
1494288497.905399, 1494288497.907937, +0.008972, +0.989685, -0.167908, -3.875732, -0.396729, +5.035400
1494288497.908197, 1494288497.910498, +0.008972, +0.989685, -0.167908, -3.875732, -0.396729, +5.035400
1494288497.910757, 1494288497.913044, +0.008972, +0.989685, -0.167908, -3.112793, -1.068115, +5.111694
1494288497.913304, 1494288497.915604, +0.023254, +1.020813, -0.161865, -3.112793, -1.068115, +5.111694
1494288497.915860, 1494288497.918354, +0.023254, +1.020813, -0.161865, -2.548218, -1.052856, +5.004883
1494288497.918612, 1494288497.920904, +0.023254, +1.020813, -0.161865, -2.548218, -1.052856, +5.004883
1494288497.921163, 1494288497.923460, +0.023254, +1.020813, -0.161865, -2.761841, -0.640869, +5.020142
1494288497.923719, 1494288497.926012, +0.024902, +1.014221, -0.158020, -2.761841, -0.640869, +5.020142
1494288497.926269, 1494288497.928747, +0.024902, +1.014221, -0.158020, -2.670288, -0.350952, +5.386353
1494288497.929006, 1494288497.931304, +0.024902, +1.014221, -0.158020, -2.670288, -0.350952, +5.386353
1494288497.931562, 1494288497.933854, +0.024902, +1.014221, -0.158020, -2.334595, -0.076294, +4.943848
1494288497.934111, 1494288497.936406, +0.031494, +1.005981, -0.175781, -2.334595, -0.076294, +4.943848
1494288497.936663, 1494288497.939550, +0.031494, +1.005981, -0.175781, -2.166748, -0.228882, +4.745483
1494288497.939825, 1494288497.943165, +0.031494, +1.005981, -0.175781, -2.166748, -0.228882, +4.455566
1494288497.943440, 1494288497.947417, +0.033325, +1.005432, -0.168640, -2.624512, -0.518799, +4.455566
1494288497.947778, 1494288497.950213, +0.033325, +1.005432, -0.168640, -2.410889, +0.122070, +4.547119
1494288497.950480, 1494288497.952895, +0.033325, +1.005432, -0.168640, -2.410889, +0.122070, +4.547119
1494288497.953160, 1494288497.955583, +0.023987, +1.009644, -0.159485, -2.609253, +0.335693, +4.516602
1494288497.955848, 1494288497.958267, +0.023987, +1.009644, -0.159485, -2.609253, +0.335693, +4.516602
1494288497.958531, 1494288497.960953, +0.023987, +1.009644, -0.159485, -3.128052, +0.213623, +4.119873
1494288497.961217, 1494288497.963632, +0.023987, +1.009644, -0.159485, -3.128052, +0.213623, +4.119873
1494288497.963898, 1494288497.966313, +0.029480, +1.007996, -0.165527, -2.716064, +0.015259, +4.333496
1494288497.966577, 1494288497.969011, +0.029480, +1.007996, -0.165527, -2.716064, +0.015259, +4.333496
1494288497.969276, 1494288497.971696, +0.029480, +1.007996, -0.165527, -2.731323, +0.228882, +3.921509
1494288497.971961, 1494288497.974442, +0.029480, +1.007996, -0.165527, -2.731323, +0.228882, +4.150391
1494288497.974707, 1494288497.977131, +0.025635, +1.004333, -0.161682, -2.929688, +0.274658, +4.150391
1494288497.977397, 1494288497.979726, +0.025635, +1.004333, -0.161682, -2.929688, +0.274658, +4.302979
1494288497.979984, 1494288497.982280, +0.025635, +1.004333, -0.161682, -2.792358, +0.274658, +4.302979
1494288497.982538, 1494288497.984834, +0.025635, +1.004333, -0.161682, -2.792358, +0.274658, +4.302979
1494288497.985091, 1494288497.987388, +0.022156, +1.006165, -0.157837, -3.112793, +0.122070, +3.997803
1494288497.987645, 1494288497.990074, +0.022156, +1.006165, -0.157837, -3.112793, +0.122070, +0.091553
1494288497.990341, 1494288497.992761, +0.022156, +1.006165, -0.157837, -3.112793, +0.183105, +3.738403
1494288497.993025, 1494288497.995447, +0.022156, +1.006165, -0.155273, -3.112793, +0.183105, +3.448486
1494288497.995713, 1494288497.998148, +0.023621, +1.004333, -0.155273, -3.494263, +0.076294, +3.448486
1494288497.998414, 1494288498.000838, +0.023621, +1.004333, -0.155273, -3.494263, +0.076294, +3.356934
1494288498.001104, 1494288498.003528, +0.023621, +1.004333, -0.155273, -3.692627, +0.091553, +3.356934
1494288498.003947, 1494288498.006367, +0.026550, +1.011292, -0.180176, -3.692627, +0.091553, +3.067017
1494288498.006631, 1494288498.009005, +0.026550, +1.011292, -0.180176, -3.417969, +0.122070, +3.067017
1494288498.009263, 1494288498.011562, +0.026550, +1.011292, -0.180176, -3.417969, -3.784180, +3.295898
1494288498.011819, 1494288498.014114, +0.026550, +1.011292, -0.180176, -3.616333, -0.625610, +3.295898
1494288498.014373, 1494288498.016668, +0.024536, +1.013855, -0.166809, -3.616333, -0.625610, +2.944946
1494288498.016925, 1494288498.019381, +0.024536, +1.013855, -0.166809, -4.196167, -1.007080, +2.944946
1494288498.019638, 1494288498.021938, +0.024536, +1.013855, -0.166809, -4.196167, -1.007080, +3.005981
1494288498.022194, 1494288498.024492, +0.024536, +1.013855, -0.166809, -4.135132, -1.296997, +3.005981
1494288498.024748, 1494288498.027044, +0.018677, +1.018433, -0.166443, -4.135132, -1.296997, +2.532959
1494288498.027299, 1494288498.029626, +0.018677, +1.018433, -0.166443, -4.226685, -1.647949, +2.532959
1494288498.029883, 1494288498.032185, +0.018677, +1.018433, -0.166443, -4.226685, -1.647949, +2.532959
1494288498.032440, 1494288498.034738, +0.018677, +1.018433, -0.166443, -4.135132, -1.464844, +2.410889
1494288498.034993, 1494288498.037294, +0.014832, +1.016785, -0.164612, -4.135132, -1.464844, +2.410889
1494288498.037549, 1494288498.040001, +0.014832, +1.016785, -0.164612, -4.379272, -2.029419, +2.822876
1494288498.040266, 1494288498.042688, +0.014832, +1.016785, -0.164612, -4.379272, -2.029419, +2.822876
1494288498.042952, 1494288498.045376, +0.014832, +1.016785, -0.164612, -3.936768, -2.304077, +2.593994
1494288498.045639, 1494288498.048068, +0.023071, +1.011108, -0.144104, -3.936768, -2.304077, +2.624512
1494288498.048334, 1494288498.050762, +0.023071, +1.011108, -0.144104, -4.013062, -2.273560, +2.624512
1494288498.051026, 1494288498.053450, +0.023071, +1.011108, -0.144104, -4.013062, -2.273560, +2.838135
1494288498.053713, 1494288498.056138, +0.023071, +1.011108, -0.170654, -3.952026, -2.044678, +2.838135
1494288498.056403, 1494288498.058839, +0.029846, +1.004883, -0.170654, -3.952026, -2.044678, +2.471924
1494288498.059102, 1494288498.061523, +0.029846, +1.004883, -0.170654, -3.982544, -2.044678, +2.471924
1494288498.061788, 1494288498.064215, +0.029846, +1.004883, -0.170654, -3.982544, -2.044678, +2.212524
1494288498.064477, 1494288498.066900, +0.029846, +1.013672, -0.157837, -4.074097, -1.617432, +2.212524
1494288498.067162, 1494288498.069596, +0.040649, +1.013672, -0.157837, -4.074097, -1.266479, +2.090454
1494288498.069860, 1494288498.072317, +0.040649, +1.013672, -0.157837, -3.967285, -1.266479, +2.090454
1494288498.072576, 1494288498.074871, +0.040649, +1.013672, -0.157837, -3.967285, -0.625610, +2.426147
1494288498.075129, 1494288498.077426, +0.026917, +1.023926, -0.147949, -4.013062, -0.625610, +2.426147
1494288498.077683, 1494288498.080052, +0.026917, +1.023926, -0.147949, -4.013062, -0.457764, +2.609253
1494288498.080309, 1494288498.082613, +0.026917, +1.023926, -0.147949, -3.570557, -0.457764, +2.609253
1494288498.082871, 1494288498.085286, +0.026917, +1.023926, -0.147949, -3.570557, -0.518799, +2.838135
1494288498.085542, 1494288498.088260, +0.017212, +1.022644, -0.162231, -3.280640, -0.518799, +2.838135
1494288498.088528, 1494288498.090948, +0.017212, +1.022644, -0.162231, -3.250122, -0.793457, +2.227783
1494288498.091214, 1494288498.093632, +0.017212, +1.022644, -0.162231, -3.250122, -0.793457, +2.227783
1494288498.093895, 1494288498.096321, +0.017212, +1.022644, -0.162231, -2.899170, -0.915527, +2.471924
1494288498.096585, 1494288498.098962, +0.019409, +1.011658, -0.151428, -2.899170, -0.915527, +2.471924
1494288498.099218, 1494288498.101519, +0.019409, +1.011658, -0.151428, -3.280640, -1.144409, +2.899170
1494288498.101775, 1494288498.104066, +0.019409, +1.011658, -0.151428, -3.280640, -1.144409, +2.899170
1494288498.104323, 1494288498.106617, +0.019409, +1.011658, -0.151428, -3.280640, -0.885010, +3.585815
1494288498.106875, 1494288498.109262, +0.006958, +1.014771, -0.154358, -2.807617, -0.885010, +3.585815
1494288498.109639, 1494288498.112055, +0.006958, +1.014771, -0.154358, -2.471924, -1.571655, +3.585815
1494288498.112320, 1494288498.114742, +0.006958, +1.014771, -0.154358, -2.471924, -1.571655, +3.585815
1494288498.115006, 1494288498.117431, +0.006958, +1.016052, -0.161682, -2.059937, -1.998901, +3.677368
1494288498.117695, 1494288498.120034, +0.016113, +1.016052, -0.161682, -2.059937, -1.998901, +3.677368
1494288498.120289, 1494288498.122592, +0.016113, +1.016052, -0.161682, -2.502441, -1.922607, +3.555298
1494288498.122849, 1494288498.125140, +0.016113, +1.016052, -0.161682, -2.502441, -1.922607, +3.555298
1494288498.125396, 1494288498.127692, +0.016113, +1.008362, -0.157288, -2.471924, -1.403809, +4.226685
1494288498.128003, 1494288498.130308, +0.034058, +1.008362, -0.157288, -2.471924, -1.403809, +4.226685
1494288498.130564, 1494288498.132863, +0.034058, +1.008362, -0.157288, -2.471924, -1.022339, +4.608154
1494288498.133119, 1494288498.135417, +0.034058, +1.008362, -0.157288, -2.563477, -1.022339, +4.608154
1494288498.135674, 1494288498.138119, +0.034058, +1.008545, -0.155823, -2.563477, -0.473022, +4.623413
1494288498.138376, 1494288498.140671, +0.029114, +1.008545, -0.155823, -1.556396, -0.473022, +4.623413
1494288498.140930, 1494288498.143229, +0.029114, +1.008545, -0.155823, -1.556396, -0.610352, +4.547119
1494288498.143487, 1494288498.145779, +0.029114, +1.008545, -0.155823, -1.174927, -0.610352, +4.547119
1494288498.146036, 1494288498.148517, +0.028931, +1.008545, -0.145020, -1.174927, -0.610352, +4.669189
1494288498.148782, 1494288498.151207, +0.028931, +1.008545, -0.145020, -1.281738, -0.289917, +4.669189
1494288498.151473, 1494288498.153894, +0.028931, +1.008545, -0.145020, -1.281738, +0.076294, +4.577637
1494288498.154157, 1494288498.156578, +0.028931, +1.008545, -0.145020, -1.098633, +0.076294, +4.577637
1494288498.156841, 1494288498.159277, +0.029480, +1.005798, -0.158936, -1.098633, +0.976562, +4.959106
1494288498.159544, 1494288498.162098, +0.029480, +1.005798, -0.158936, -0.213623, +0.976562, +4.959106
1494288498.162359, 1494288498.164655, +0.029480, +1.005798, -0.158936, +0.106812, +1.571655, +4.669189
1494288498.164914, 1494288498.167209, +0.029480, +1.005798, -0.158936, +0.106812, +1.571655, +4.669189
1494288498.167467, 1494288498.169965, +0.029663, +1.004700, -0.153442, +0.366211, +1.785278, +4.211426
1494288498.170229, 1494288498.172613, +0.029663, +1.004700, -0.153442, +0.366211, +1.785278, +4.211426
1494288498.172875, 1494288498.175569, +0.029663, +1.004700, -0.153442, +0.274658, +1.983643, +4.287720
1494288498.175835, 1494288498.178250, +0.029663, +1.012024, -0.145569, +0.274658, +1.983643, +4.287720
1494288498.178508, 1494288498.180806, +0.022156, +1.012024, -0.145569, +0.137329, +2.014160, +4.226685
1494288498.181065, 1494288498.183361, +0.022156, +1.012024, -0.145569, +0.137329, +2.014160, +4.226685
1494288498.183620, 1494288498.185916, +0.022156, +1.012024, -0.145569, -0.244141, +1.831055, +4.852295
1494288498.186174, 1494288498.188582, +0.022156, +1.011475, -0.153992, -0.244141, +1.831055, +4.852295
1494288498.188847, 1494288498.191275, +0.019592, +1.011475, -0.153992, +0.030518, +1.586914, +4.760742
1494288498.191539, 1494288498.193964, +0.019592, +1.011475, -0.153992, +0.030518, +1.586914, +4.760742
1494288498.194227, 1494288498.196654, +0.019592, +1.011475, -0.153992, -0.213623, +0.686646, +5.050659
1494288498.196919, 1494288498.199358, +0.022522, +1.019897, -0.157837, -0.213623, +0.686646, +5.050659
1494288498.199626, 1494288498.202048, +0.022522, +1.019897, -0.157837, +0.427246, +0.854492, +5.432129
1494288498.202313, 1494288498.204732, +0.022522, +1.019897, -0.157837, +0.427246, +0.854492, +5.432129
1494288498.204997, 1494288498.207422, +0.022522, +1.019897, -0.157837, +0.442505, +0.518799, +5.584717
1494288498.207687, 1494288498.210028, +0.023071, +1.011108, -0.155823, +0.442505, +0.518799, +5.584717
1494288498.210286, 1494288498.212584, +0.023071, +1.011108, -0.155823, -0.152588, +0.061035, +5.722046
1494288498.212841, 1494288498.215136, +0.023071, +1.011108, -0.155823, -0.152588, +0.061035, +5.722046
1494288498.215507, 1494288498.217934, +0.023071, +1.011108, -0.155823, -0.045776, -0.503540, +5.493164
1494288498.218211, 1494288498.220519, +0.026001, +1.003235, -0.161133, -0.045776, -0.503540, +5.493164
1494288498.220780, 1494288498.223073, +0.026001, +1.003235, -0.161133, +0.183105, -0.350952, +5.386353
1494288498.223332, 1494288498.225628, +0.026001, +1.003235, -0.161133, +0.183105, -0.350952, +5.386353
1494288498.225885, 1494288498.228278, +0.026001, +1.003235, -0.161133, -0.076294, -0.076294, +5.737305
1494288498.228535, 1494288498.230830, +0.035156, +1.004700, -0.154907, -0.076294, -0.076294, +5.737305
1494288498.231087, 1494288498.233381, +0.035156, +1.004700, -0.154907, -0.350952, -0.473022, +5.111694
1494288498.233640, 1494288498.235934, +0.035156, +1.004700, -0.154907, -0.350952, -0.473022, +5.111694
1494288498.236193, 1494288498.238573, +0.035156, +1.004700, -0.154907, -0.335693, -0.473022, +5.508423
1494288498.238837, 1494288498.241263, +0.034058, +1.016785, -0.163330, -0.335693, -0.473022, +5.508423
1494288498.241529, 1494288498.243951, +0.034058, +1.016785, -0.163330, -0.976562, -0.762939, +5.020142
1494288498.244217, 1494288498.246638, +0.034058, +1.016785, -0.163330, -0.976562, -0.762939, +5.020142
1494288498.246904, 1494288498.249374, +0.034058, +1.022278, -0.157104, -1.419067, -0.991821, +5.035400
1494288498.249638, 1494288498.252055, +0.027283, +1.022278, -0.157104, -1.419067, -0.991821, +5.035400
1494288498.252320, 1494288498.254737, +0.027283, +1.022278, -0.157104, -1.159668, -1.754761, +4.684448
1494288498.255002, 1494288498.257426, +0.027283, +1.022278, -0.157104, -1.159668, -1.754761, +4.684448
1494288498.257690, 1494288498.260161, +0.022888, +1.017517, -0.160217, -1.007080, -2.471924, +4.272461
1494288498.260426, 1494288498.262846, +0.022888, +1.017517, -0.160217, -1.007080, -2.471924, +4.272461
1494288498.263110, 1494288498.265529, +0.022888, +1.017517, -0.160217, -1.358032, -2.426147, +4.745483
1494288498.265792, 1494288498.268218, +0.022888, +1.017517, -0.160217, -1.358032, -2.426147, +4.745483
1494288498.268480, 1494288498.270900, +0.016296, +1.012207, -0.150513, -1.693726, -2.868652, +4.714966
1494288498.271164, 1494288498.273581, +0.016296, +1.012207, -0.150513, -1.693726, -2.868652, +4.714966
1494288498.273844, 1494288498.276267, +0.016296, +1.012207, -0.150513, -1.647949, -3.845215, +4.669189
1494288498.276532, 1494288498.278906, +0.016296, +1.012207, -0.150513, -1.647949, -3.845215, +4.669189
1494288498.279166, 1494288498.281459, +0.009888, +1.011108, -0.158020, -1.876831, -3.906250, +4.806519
1494288498.281717, 1494288498.284194, +0.009888, +1.011108, -0.158020, -1.876831, -3.906250, +4.806519
1494288498.284453, 1494288498.286758, +0.009888, +1.011108, -0.158020, -2.532959, +0.610352, +5.432129
1494288498.287016, 1494288498.289638, +0.009888, +1.011108, -0.189697, -2.532959, +0.610352, +5.432129
1494288498.289905, 1494288498.292327, -0.014099, +1.030518, -0.189697, -4.302979, +9.597778, +5.432129
1494288498.292593, 1494288498.295020, -0.014099, +1.030518, -0.189697, -4.302979, +9.597778, +5.432129
1494288498.295285, 1494288498.297750, -0.014099, +1.030518, -0.189697, -5.447388, +13.275146, +5.905151
1494288498.298019, 1494288498.300441, +0.032776, +1.003784, -0.125977, -5.447388, +13.275146, +5.905151
1494288498.300710, 1494288498.303130, +0.037354, +1.003784, -0.125977, -5.752563, +9.979248, +6.622314
1494288498.303395, 1494288498.305816, +0.037354, +1.003784, -0.125977, -5.752563, +9.979248, +6.607056
1494288498.306080, 1494288498.308548, +0.037354, +1.003784, -0.125977, -6.530762, +6.149292, +6.607056
1494288498.308811, 1494288498.311236, +0.019409, +1.012573, -0.088623, -6.530762, +6.149292, +5.783081
1494288498.311501, 1494288498.313926, +0.019409, +1.012573, -0.088623, -6.713867, +4.272461, +5.783081
1494288498.314189, 1494288498.316610, +0.019409, +1.012573, -0.088623, -6.713867, +0.366211, +5.294800
1494288498.316875, 1494288498.319222, +0.019409, +1.012573, -0.088623, -6.881714, +3.402710, +5.294800
1494288498.319480, 1494288498.321771, +0.028564, +1.012207, -0.138245, -6.881714, +3.402710, +5.142212
1494288498.322133, 1494288498.324433, +0.028564, +1.012207, -0.138245, -7.019043, +1.754761, +5.142212
1494288498.324689, 1494288498.326992, +0.028564, +1.012207, -0.138245, -7.019043, +1.754761, +4.913330
1494288498.327248, 1494288498.329558, +0.028564, +1.012207, -0.138245, -7.751465, +0.915527, +4.913330
1494288498.329815, 1494288498.332112, +0.045227, +1.036377, -0.153076, -7.751465, +0.915527, +4.364014
1494288498.332368, 1494288498.334669, +0.045227, +1.036377, -0.153076, -8.285522, +2.807617, +4.364014
1494288498.334926, 1494288498.337223, +0.045227, +1.036377, -0.153076, -8.285522, +2.807617, +0.457764
1494288498.337479, 1494288498.339823, +0.045227, +1.036377, -0.153076, -10.116577, +9.414673, +3.326416
1494288498.340087, 1494288498.342388, +0.038635, +1.066772, -0.154907, -10.116577, +9.414673, +3.326416
1494288498.342650, 1494288498.344952, +0.038635, +1.066772, -0.154907, -12.817383, +18.020630, +2.487183
1494288498.345216, 1494288498.347515, +0.038635, +1.066772, -0.154907, -12.817383, +18.020630, +2.487183
1494288498.347865, 1494288498.350278, +0.038635, +1.066772, -0.061157, -14.572144, +19.195557, +1.800537
1494288498.350547, 1494288498.352960, +0.044861, +1.052856, -0.084045, -14.572144, +19.195557, +1.800537
1494288498.353229, 1494288498.355637, +0.044861, +1.052856, -0.084045, -15.274048, +16.998291, +0.106812
1494288498.355909, 1494288498.358359, +0.044861, +1.052856, -0.084045, -15.274048, +16.998291, -2.136230
1494288498.358630, 1494288498.361039, +0.044861, +1.094788, -0.050354, -16.906738, +16.799927, -2.136230
1494288498.361311, 1494288498.363719, -0.045227, +1.094788, -0.050354, -16.906738, +16.799927, -4.867554
1494288498.363988, 1494288498.366402, -0.045227, +1.094788, -0.050354, -18.798828, +14.770508, -4.867554
1494288498.366671, 1494288498.369086, -0.045227, +1.094788, -0.050354, -18.798828, +14.770508, -8.651733
1494288498.369357, 1494288498.371767, -0.096130, +1.118408, -0.054932, -20.950317, +10.421753, -8.651733
1494288498.372037, 1494288498.374441, -0.096130, +1.118408, -0.054932, -20.950317, +10.421753, -13.854980
1494288498.374715, 1494288498.377128, -0.096130, +1.118408, -0.054932, -23.269653, +9.902954, -13.854980
1494288498.377399, 1494288498.379759, -0.096130, +1.118408, -0.054932, -23.269653, +5.996704, -19.760132
1494288498.380024, 1494288498.382322, -0.113342, +1.194397, -0.091370, -25.955200, +7.553101, -19.760132
1494288498.382587, 1494288498.384887, -0.113342, +1.194397, -0.091370, -25.955200, +3.646851, -25.024414
1494288498.385151, 1494288498.387451, -0.113342, +1.194397, -0.091370, -29.296875, +3.356934, -25.024414
1494288498.387755, 1494288498.390182, -0.113342, +1.194397, -0.091370, -29.296875, -0.549316, -31.692505
1494288498.390455, 1494288498.392878, -0.133118, +1.262512, -0.102905, -32.958984, -3.433228, -31.692505
1494288498.393148, 1494288498.395571, -0.133118, +1.262512, -0.102905, -32.958984, -19.058228, -37.490845
1494288498.395845, 1494288498.398284, -0.133118, +1.262512, -0.102905, -36.651611, -15.777588, -37.490845
1494288498.398561, 1494288498.400981, -0.133118, +1.262512, -0.149780, -36.651611, -27.938843, -42.938232
1494288498.401254, 1494288498.403681, +0.019226, +1.228271, -0.158203, -38.345337, -27.938843, -42.938232
1494288498.404010, 1494288498.406550, +0.019226, +1.228271, -0.158203, -40.176392, -36.254883, -47.348022
1494288498.406824, 1494288498.409658, +0.019226, +1.228271, -0.158203, -40.176392, -36.254883, -47.348022
1494288498.409934, 1494288498.412363, +0.252686, +1.012024, -0.290405, -41.427612, -43.548584, -50.308228
1494288498.412638, 1494288498.415061, +0.252686, +1.012024, -0.290405, -41.427612, -43.548584, -50.308228
1494288498.415335, 1494288498.417765, +0.252686, +1.012024, -0.290405, -42.160034, -47.943115, -52.719116
1494288498.418032, 1494288498.420327, +0.252686, +1.012024, -0.290405, -42.160034, -47.943115, -52.719116
1494288498.420593, 1494288498.422885, +0.326477, +0.796692, -0.418213, -41.290283, -49.224854, -55.023193
1494288498.423152, 1494288498.425452, +0.326477, +0.796692, -0.418213, -41.290283, -49.224854, -55.023193
1494288498.425827, 1494288498.428190, +0.326477, +0.796692, -0.418213, -39.367676, -50.109863, -57.907104
1494288498.428464, 1494288498.430887, +0.326477, +0.796692, -0.418213, -39.367676, -50.109863, -57.907104
1494288498.431159, 1494288498.433587, +0.209290, +0.894836, -0.460693, -37.445068, -53.161621, -61.416626
1494288498.433861, 1494288498.436284, +0.209290, +0.894836, -0.460693, -37.445068, -53.161621, -61.416626
1494288498.436558, 1494288498.438937, +0.209290, +0.894836, -0.460693, -36.804199, -61.218262, -64.407349
1494288498.439204, 1494288498.441517, +0.209290, +0.894836, -0.460693, -36.804199, -61.218262, -64.407349
1494288498.441784, 1494288498.444080, -0.012085, +1.068787, -0.436523, -36.849976, -72.738647, -67.214966
1494288498.444347, 1494288498.446647, -0.012085, +1.068787, -0.436523, -36.849976, -72.738647, -67.214966
1494288498.446914, 1494288498.449216, -0.012085, +1.068787, -0.436523, -33.660889, -85.494995, -68.939209
1494288498.449484, 1494288498.451781, -0.012085, +1.068787, -0.295898, -33.660889, -85.494995, -68.939209
1494288498.452048, 1494288498.454346, -0.186401, +0.983826, -0.303223, -31.280518, -101.272583, -68.145752
1494288498.454612, 1494288498.456909, -0.186401, +0.983826, -0.303223, -31.280518, -101.272583, -68.145752
1494288498.457175, 1494288498.459625, -0.186401, +0.983826, -0.303223, -31.341553, -115.829468, -67.245483
1494288498.459893, 1494288498.462194, -0.186401, +0.983826, -0.143372, -31.341553, -115.829468, -67.245483
1494288498.462461, 1494288498.464758, -0.424255, +1.053955, -0.143372, -31.585693, -127.685547, -68.542480
1494288498.465024, 1494288498.467323, -0.424255, +1.053955, -0.143372, -31.585693, -127.685547, -68.542480
1494288498.467589, 1494288498.469998, -0.424255, +1.053955, -0.143372, -32.730103, -136.993408, -69.519043
1494288498.470264, 1494288498.472562, -0.424255, +1.099915, -0.079651, -32.730103, -136.993408, -69.519043
1494288498.472828, 1494288498.475127, -0.505737, +1.099915, -0.079651, -34.896851, -146.209717, -69.335938
1494288498.475394, 1494288498.477695, -0.505737, +1.099915, -0.079651, -34.896851, -146.209717, -69.335938
1494288498.478018, 1494288498.480441, -0.505737, +1.099915, -0.079651, -34.667969, -154.373169, -68.557739
1494288498.480717, 1494288498.483137, -0.271362, +1.112915, -0.143738, -34.667969, -154.373169, -68.557739
1494288498.483411, 1494288498.485831, -0.279419, +1.112915, -0.143738, -35.095215, -161.224365, -70.205688
1494288498.486106, 1494288498.488565, -0.279419, +1.112915, -0.143738, -35.095215, -161.224365, -70.205688
1494288498.488840, 1494288498.491258, -0.279419, +1.112915, -0.143738, -40.008545, -164.611816, -73.822021
1494288498.491533, 1494288498.493960, -0.291687, +1.172974, +0.162781, -40.008545, -164.611816, -73.822021
1494288498.494236, 1494288498.496662, -0.291687, +1.172974, +0.162781, -44.784546, -164.764404, -78.292847
1494288498.496935, 1494288498.499374, -0.291687, +1.172974, +0.162781, -44.784546, -164.764404, -78.292847
1494288498.499647, 1494288498.502073, -0.291687, +1.172974, +0.162781, -38.986206, -148.406982, -79.818726
1494288498.502347, 1494288498.504770, +0.294983, +1.059448, -0.212585, -38.986206, -148.406982, -79.818726
1494288498.505043, 1494288498.507465, +0.294983, +1.059448, -0.212585, -32.424927, -119.537354, -79.864502
1494288498.507749, 1494288498.510045, +0.294983, +1.059448, -0.212585, -32.424927, -119.537354, -79.864502
1494288498.510314, 1494288498.512608, +0.294983, +1.059448, +0.021790, -33.081055, -99.868774, -79.574585
1494288498.512876, 1494288498.515173, +1.107422, +1.023010, +0.008423, -33.081055, -99.868774, -79.574585
1494288498.515440, 1494288498.517773, +1.107422, +1.023010, +0.008423, -29.815674, -72.647095, -78.369141
1494288498.518040, 1494288498.520340, +1.107422, +1.023010, +0.008423, -29.815674, -72.647095, -78.369141
1494288498.520606, 1494288498.522902, +1.107422, +1.023010, -0.034607, -27.267456, -57.678223, -77.835083
1494288498.523168, 1494288498.525591, +0.952332, +0.849243, -0.034607, -27.267456, -57.678223, -77.835083
1494288498.525968, 1494288498.528602, +0.952332, +0.849243, -0.034607, -26.718140, -52.185059, -77.850342
1494288498.528880, 1494288498.531305, +0.952332, +0.849243, -0.034607, -26.718140, -52.185059, -77.850342
1494288498.531581, 1494288498.534005, +0.483582, +1.275330, +0.131104, -26.184082, -41.992188, -79.635620
1494288498.534280, 1494288498.536709, +0.494202, +1.275330, +0.131104, -26.184082, -41.992188, -79.635620
1494288498.536983, 1494288498.539418, +0.494202, +1.275330, +0.131104, -28.472900, -25.451660, -83.953857
1494288498.539691, 1494288498.542116, +0.494202, +1.275330, +0.131104, -28.472900, -25.451660, -83.953857
1494288498.542388, 1494288498.544813, -0.370056, +1.395813, +0.206177, -29.174805, -10.818481, -91.232300
1494288498.545088, 1494288498.547514, -0.370056, +1.395813, +0.206177, -29.174805, -10.818481, -99.044800
1494288498.547798, 1494288498.550221, -0.370056, +1.395813, +0.206177, -29.464722, -8.529663, -97.793579
1494288498.550493, 1494288498.552911, -0.370056, +1.395813, +0.206177, -29.464722, -8.529663, -101.882935
1494288498.553183, 1494288498.555602, -0.390747, +1.419983, +0.154724, -32.012939, -15.258789, -101.882935
1494288498.555875, 1494288498.558315, -0.390747, +1.419983, +0.154724, -32.012939, -15.258789, -103.652954
1494288498.558583, 1494288498.560876, -0.390747, +1.419983, +0.154724, -36.819458, -19.149780, -103.652954
1494288498.561142, 1494288498.563439, -0.390747, +1.419983, +0.060974, -36.819458, -19.149780, -105.712891
1494288498.563706, 1494288498.566005, -0.029114, +1.189087, +0.066650, -37.857056, -11.260986, -105.712891
1494288498.566272, 1494288498.568579, -0.029114, +1.189087, +0.066650, -37.857056, -11.260986, -105.712891
1494288498.568848, 1494288498.571143, -0.029114, +1.189087, +0.066650, -36.132812, -3.387451, -107.788086
1494288498.571407, 1494288498.573705, -0.029114, +1.189087, -0.006409, -36.132812, -3.387451, -107.788086
1494288498.573970, 1494288498.576269, -0.069946, +0.999390, -0.006409, -35.568237, +1.678467, -109.603882
1494288498.576534, 1494288498.578886, -0.069946, +0.999390, -0.006409, -35.568237, +1.678467, -109.603882
1494288498.579151, 1494288498.581451, -0.069946, +0.999390, -0.006409, -34.164429, +6.835938, -111.480713
1494288498.581716, 1494288498.584018, -0.069946, +0.999390, -0.168457, -34.164429, +6.835938, -111.480713
1494288498.584283, 1494288498.586580, -0.273560, +0.892273, -0.168457, -31.906128, +7.217407, -112.258911
1494288498.586843, 1494288498.589319, -0.273560, +0.892273, -0.168457, -31.906128, +7.217407, -112.258911
1494288498.589593, 1494288498.592014, -0.273560, +0.892273, -0.168457, -30.242920, +5.355835, -112.182617
1494288498.592285, 1494288498.594704, -0.273560, +0.936035, -0.230164, -30.242920, +5.355835, -112.182617
1494288498.594977, 1494288498.597395, -0.415649, +0.936035, -0.230164, -29.434204, +2.136230, -111.663818
1494288498.597666, 1494288498.600090, -0.415649, +0.936035, -0.230164, -29.434204, +2.136230, -107.757568
1494288498.600361, 1494288498.602785, -0.415649, +0.936035, -0.230164, -30.792236, -1.953125, -108.612061
1494288498.603057, 1494288498.605484, -0.470581, +1.033447, -0.129089, -30.792236, -1.953125, -104.705811
1494288498.605754, 1494288498.608187, -0.470581, +1.033447, -0.129089, -34.988403, -5.584717, -104.141235
1494288498.608458, 1494288498.610880, -0.470581, +1.033447, -0.129089, -34.988403, -5.584717, -99.288940
1494288498.611152, 1494288498.613570, -0.470581, +1.033447, -0.129089, -38.803101, -9.887695, -99.288940
1494288498.613841, 1494288498.616266, -0.459229, +0.887695, -0.106384, -38.803101, -9.887695, -96.328735
1494288498.616541, 1494288498.618913, -0.459229, +0.887695, -0.106384, -40.191650, -12.634277, -96.328735
1494288498.619181, 1494288498.621475, -0.459229, +0.887695, -0.106384, -40.191650, -12.634277, -93.597412
1494288498.621742, 1494288498.624040, -0.459229, +0.887695, -0.106384, -38.742065, -15.365601, -93.597412
1494288498.624306, 1494288498.626603, -0.450256, +0.697449, -0.164429, -38.742065, -15.365601, -90.164185
1494288498.626868, 1494288498.629295, -0.450256, +0.697449, -0.164429, -36.407471, -15.640259, -90.164185
1494288498.629686, 1494288498.631983, -0.450256, +0.697449, -0.164429, -36.407471, -15.640259, -86.334229
1494288498.632250, 1494288498.634547, -0.450256, +0.697449, -0.070679, -36.499023, -15.075684, -86.334229
1494288498.634813, 1494288498.637109, -0.575500, +0.702026, -0.070862, -36.499023, -15.075684, -82.244873
1494288498.637378, 1494288498.639807, -0.575500, +0.702026, -0.070862, -37.612915, -15.014648, -82.244873
1494288498.640082, 1494288498.642493, -0.575500, +0.702026, -0.070862, -37.612915, -15.014648, -78.308105
1494288498.642768, 1494288498.645317, -0.575500, +0.608276, -0.060242, -39.215088, -15.869141, -78.308105
1494288498.645592, 1494288498.648009, -0.674194, +0.590881, -0.060242, -39.215088, -15.869141, -75.775146
1494288498.648340, 1494288498.650783, -0.674194, +0.590881, -0.060242, -40.206909, -17.761230, -75.775146
1494288498.651061, 1494288498.653484, -0.674194, +0.590881, -0.060242, -40.206909, -16.311646, -72.982788
1494288498.653760, 1494288498.656177, -0.617432, +0.369690, -0.045410, -39.779663, -16.311646, -72.982788
1494288498.656452, 1494288498.658877, -0.617432, +0.369690, -0.045410, -35.873413, -12.145996, -68.664551
1494288498.659152, 1494288498.661571, -0.617432, +0.369690, -0.045410, -37.460327, -12.145996, -68.664551
1494288498.661845, 1494288498.664269, -0.617432, +0.369690, -0.045410, -34.133911, -9.262085, -63.766479
1494288498.664539, 1494288498.666965, -0.722900, +0.447144, +0.099243, -34.133911, -9.262085, -63.766479
1494288498.667238, 1494288498.669668, -0.722900, +0.447144, +0.099243, -32.302856, -9.445190, -57.540894
1494288498.669941, 1494288498.672363, -0.722900, +0.447144, +0.099243, -32.302856, -9.445190, -57.540894
1494288498.672634, 1494288498.675054, -0.722900, +0.447144, +0.099243, -33.325195, -13.107300, -51.101685
1494288498.675328, 1494288498.677754, -0.772156, +1.001953, +0.266235, -33.325195, -13.107300, -51.101685
1494288498.678020, 1494288498.680320, -0.772156, +1.001953, +0.266235, -36.819458, -19.226074, -43.579102
1494288498.680585, 1494288498.682886, -0.772156, +1.001953, +0.266235, -36.819458, -19.226074, -43.579102
1494288498.683153, 1494288498.685448, -0.772156, +1.001953, +0.242615, -39.947510, -24.215698, -37.017822
1494288498.685714, 1494288498.688011, -0.406860, +1.319641, +0.242615, -39.947510, -24.215698, -37.017822
1494288498.688279, 1494288498.690577, -0.406860, +1.319641, +0.242615, -41.061401, -24.612427, -32.257080
1494288498.690844, 1494288498.693147, -0.406860, +1.319641, +0.242615, -41.061401, -24.612427, -32.257080
1494288498.693412, 1494288498.695708, -0.406860, +1.319641, +0.178345, -40.252686, -20.339966, -30.120850
1494288498.695973, 1494288498.698442, -0.231262, +1.241638, +0.178345, -40.252686, -20.339966, -30.120850
1494288498.698708, 1494288498.701007, -0.231262, +1.241638, +0.178345, -38.711548, -13.732910, -29.495239
1494288498.701272, 1494288498.703569, -0.231262, +1.241638, +0.178345, -38.711548, -13.732910, -29.495239
1494288498.703833, 1494288498.706130, -0.231262, +1.054138, +0.174133, -38.711548, -8.697510, -29.190063
1494288498.706394, 1494288498.708934, -0.366943, +1.052856, +0.174133, -37.414551, -8.697510, -29.190063
1494288498.709205, 1494288498.711631, -0.366943, +1.052856, +0.174133, -36.300659, -5.996704, -27.770996
1494288498.711903, 1494288498.714323, -0.366943, +1.052856, +0.174133, -36.300659, -5.996704, -27.770996
1494288498.714593, 1494288498.717008, -0.507935, +0.799805, +0.043762, -33.737183, -5.203247, -25.588989
1494288498.717280, 1494288498.719743, -0.507935, +0.799805, +0.043762, -33.737183, -5.203247, -25.588989
1494288498.720014, 1494288498.722437, -0.507935, +0.799805, +0.043762, -31.890869, -5.935669, -22.003174
1494288498.722710, 1494288498.725131, -0.507935, +0.799805, +0.043762, -31.890869, -5.935669, -22.003174
1494288498.725405, 1494288498.727832, -0.696899, +0.600952, -0.043213, -31.097412, -7.186890, -16.571045
1494288498.728105, 1494288498.730522, -0.696899, +0.600952, -0.043213, -31.097412, -7.186890, -16.571045
1494288498.730793, 1494288498.733219, -0.696899, +0.600952, -0.043213, -30.258179, -8.682251, -9.475708
1494288498.733595, 1494288498.736013, -0.696899, +0.600952, -0.043213, -30.258179, -8.682251, -9.475708
1494288498.736282, 1494288498.738744, -0.798523, +0.558655, +0.047791, -27.374268, -9.399414, -3.601074
1494288498.739015, 1494288498.741436, -0.798523, +0.558655, +0.047791, -27.374268, -9.399414, -3.601074
1494288498.741706, 1494288498.744127, -0.798523, +0.558655, +0.047791, -24.719238, -7.888794, +2.456665
1494288498.744394, 1494288498.746813, -0.798523, +0.605530, +0.309082, -24.719238, -7.888794, +2.456665
1494288498.747082, 1494288498.749548, -0.661926, +0.604980, +0.309082, -22.903442, -8.041382, +9.307861
1494288498.749818, 1494288498.752239, -0.661926, +0.604980, +0.309082, -22.903442, -8.041382, +9.307861
1494288498.752508, 1494288498.754928, -0.661926, +0.604980, +0.309082, -21.148682, -8.666992, +15.380859
1494288498.755201, 1494288498.757629, -0.612854, +0.715759, +0.505188, -21.148682, -8.666992, +15.380859
1494288498.757905, 1494288498.760329, -0.612854, +0.715759, +0.505188, -19.989014, -8.682251, +19.821167
1494288498.760600, 1494288498.763023, -0.612854, +0.715759, +0.505188, -19.989014, -8.682251, +19.821167
1494288498.763294, 1494288498.765798, -0.612854, +0.715759, +0.505188, -17.700195, -8.056641, +23.376465
1494288498.766069, 1494288498.768800, -0.565247, +0.499512, +0.401001, -17.700195, -8.056641, +26.062012
1494288498.769075, 1494288498.771500, -0.565247, +0.499512, +0.401001, -12.237549, -7.675171, +26.062012
1494288498.771773, 1494288498.774195, -0.565247, +0.499512, +0.401001, -12.237549, -11.581421, +29.296875
1494288498.774471, 1494288498.776892, -0.565247, +0.499512, +0.194275, -4.409790, -8.026123, +29.296875
1494288498.777161, 1494288498.779599, -0.610657, +0.420959, +0.194275, -4.409790, -7.308960, +31.341553
1494288498.779868, 1494288498.782292, -0.610657, +0.420959, +0.194275, +4.684448, -7.308960, +31.341553
1494288498.782561, 1494288498.784985, -0.610657, +0.420959, +0.194275, +12.496948, -7.339478, +32.409668
1494288498.785256, 1494288498.787672, -0.610657, +0.564880, +0.230347, +13.626099, -7.339478, +32.409668
1494288498.787995, 1494288498.790419, -0.530823, +0.564880, +0.230347, +21.347046, -8.850098, +33.325195
1494288498.790691, 1494288498.793116, -0.530823, +0.564880, +0.230347, +21.347046, -8.850098, +33.325195
1494288498.793387, 1494288498.795811, -0.530823, +0.564880, +0.230347, +27.236938, -9.658813, +34.271240
1494288498.796083, 1494288498.798515, -0.349915, +1.200806, +0.475525, +27.236938, -9.658813, +34.271240
1494288498.798780, 1494288498.801073, -0.349915, +1.200806, +0.475525, +31.829834, -8.270264, +36.041260
1494288498.801338, 1494288498.803637, -0.349915, +1.200806, +0.475525, +31.829834, -8.270264, +36.041260
1494288498.803900, 1494288498.806197, -0.349915, +1.200806, +0.475525, +36.407471, -5.416870, +37.872314
1494288498.806462, 1494288498.808773, -0.135315, +1.805603, +0.575500, +36.407471, -5.416870, +37.872314
1494288498.809038, 1494288498.811335, -0.135315, +1.805603, +0.575500, +40.313721, +0.320435, +38.696289
1494288498.811600, 1494288498.813896, -0.135315, +1.805603, +0.575500, +41.534424, +0.320435, +38.696289
1494288498.814160, 1494288498.816456, -0.135315, +1.805603, +0.575500, +41.534424, +7.110596, +38.681030
1494288498.816720, 1494288498.819060, -0.165344, +1.888916, +0.347717, +46.936035, +7.110596, +38.681030
1494288498.819323, 1494288498.821622, -0.165344, +1.888916, +0.347717, +46.936035, +14.556885, +38.436890
1494288498.821888, 1494288498.824188, -0.165344, +1.888916, +0.347717, +52.642822, +14.556885, +38.436890
1494288498.824454, 1494288498.826753, -0.165344, +1.888916, +0.347717, +52.642822, +22.369385, +38.879395
1494288498.827018, 1494288498.829518, -0.228149, +1.901184, +0.153259, +58.731079, +20.767212, +38.879395
1494288498.829793, 1494288498.832214, -0.228149, +1.901184, +0.153259, +58.731079, +22.827148, +40.069580
1494288498.832489, 1494288498.834917, -0.228149, +1.901184, +0.153259, +64.849854, +22.827148, +40.069580
1494288498.835191, 1494288498.837615, -0.228149, +1.901184, -0.034241, +72.662354, +19.729614, +42.938232
1494288498.838042, 1494288498.840469, -0.499146, +1.927002, -0.010803, +71.762085, +19.729614, +42.938232
1494288498.840745, 1494288498.843163, -0.499146, +1.927002, -0.010803, +78.826904, +11.917114, +45.379639
1494288498.843438, 1494288498.845861, -0.499146, +1.927002, -0.010803, +78.826904, +11.917114, +45.379639
1494288498.846134, 1494288498.848566, -0.499146, +1.828125, +0.053284, +84.915161, +2.960205, +48.156738
1494288498.848836, 1494288498.851261, -0.587585, +1.828125, +0.053284, +84.915161, +2.960205, +48.156738
1494288498.851532, 1494288498.853960, -0.587585, +1.828125, +0.053284, +91.293335, -4.974365, +53.527832
1494288498.854232, 1494288498.856656, -0.587585, +1.828125, +0.053284, +91.293335, -4.974365, +53.527832
1494288498.856928, 1494288498.859359, -0.482666, +1.657288, +0.254150, +98.312378, -13.259888, +62.072754
1494288498.859636, 1494288498.862061, -0.482666, +1.657288, +0.254150, +98.312378, -13.259888, +62.072754
1494288498.862335, 1494288498.864765, -0.482666, +1.657288, +0.254150, +105.102539, -21.850586, +72.479248
1494288498.865039, 1494288498.867463, -0.482666, +1.657288, +0.254150, +105.102539, -21.850586, +72.479248
1494288498.867746, 1494288498.870167, -0.379578, +1.705078, +0.416748, +111.831665, -30.303955, +84.930420
1494288498.870443, 1494288498.872858, -0.379578, +1.705078, +0.416748, +111.831665, -30.303955, +84.930420
1494288498.873135, 1494288498.875560, -0.379578, +1.705078, +0.416748, +116.546631, -40.512085, +101.272583
1494288498.875833, 1494288498.878271, -0.379578, +1.705078, +0.697998, +116.546631, -40.512085, +101.272583
1494288498.878545, 1494288498.880968, -0.331604, +1.989075, +0.674011, +118.255615, -60.653687, +120.223999
1494288498.881242, 1494288498.883667, -0.331604, +1.989075, +0.674011, +118.255615, -60.653687, +120.223999
1494288498.883992, 1494288498.886416, -0.331604, +1.989075, +0.674011, +119.659424, -86.471558, +137.527466
1494288498.886692, 1494288498.889249, -0.331604, +2.256592, +0.851624, +119.659424, -86.471558, +137.527466
1494288498.889525, 1494288498.891913, +0.114624, +2.256592, +0.851624, +118.194580, -114.334106, +156.372070
1494288498.892242, 1494288498.894740, +0.114624, +2.256592, +0.851624, +118.194580, -114.334106, +175.903320
1494288498.895016, 1494288498.897440, +0.114624, +2.256592, +0.851624, +113.800049, -141.113281, +179.153442
1494288498.897756, 1494288498.900180, +1.189270, +2.622620, +0.897766, +113.800049, -141.113281, +209.045410
1494288498.900455, 1494288498.902876, +1.189270, +2.622620, +0.897766, +112.106323, -157.196045, +209.045410
1494288498.903152, 1494288498.905572, +1.189270, +2.622620, +0.897766, +112.106323, -157.196045, +235.931396
1494288498.905845, 1494288498.908271, +1.189270, +2.622620, +0.897766, +107.879639, -170.181274, +235.931396
1494288498.908545, 1494288498.910966, +2.673523, +3.628601, +0.810974, +107.879639, -150.650024, +255.249023
1494288498.911241, 1494288498.913664, +2.673523, +3.628601, +0.810974, +107.376099, -149.642944, +255.249023
1494288498.913938, 1494288498.916356, +2.673523, +3.628601, +0.810974, +107.376099, -77.468872, +269.912720
1494288498.916629, 1494288498.919002, +2.673523, +3.628601, +0.698547, +111.404419, -77.468872, +269.912720
1494288498.919271, 1494288498.921564, +2.431824, +3.994995, +0.698547, +111.404419, -32.974243, +260.742188
1494288498.921830, 1494288498.924125, +2.431824, +3.994995, +0.698547, +114.044189, -32.974243, +260.742188
1494288498.924389, 1494288498.926685, +2.431824, +3.994995, +0.698547, +114.044189, -5.630493, +222.900391
1494288498.926947, 1494288498.929298, +2.431824, +3.994995, +0.228882, +131.942749, -6.301880, +222.900391
1494288498.929561, 1494288498.931856, +2.803711, +5.185181, +0.228882, +131.942749, +114.791870, +139.526367
1494288498.932122, 1494288498.934421, +2.803711, +5.185181, +0.228882, +171.722412, +115.783691, +139.526367
1494288498.934688, 1494288498.936986, +2.803711, +5.185181, +0.228882, +171.722412, +115.783691, +119.735718
1494288498.937251, 1494288498.939644, +2.803711, +5.560181, -0.803284, +112.380981, +219.665527, +119.735718
1494288498.940017, 1494288498.942320, -0.356323, +5.554504, -0.803284, +112.380981, +219.665527, +187.805176
1494288498.942587, 1494288498.944883, -0.356323, +5.554504, -0.803284, +23.132324, +109.848022, +187.805176
1494288498.945148, 1494288498.947448, -0.356323, +5.554504, -0.803284, +23.132324, +109.848022, +216.415405
1494288498.947858, 1494288498.950279, -5.137573, +3.546021, -1.775757, +11.550903, -24.398804, +216.415405
1494288498.950551, 1494288498.952974, -5.126038, +3.546021, -1.775757, +11.550903, -110.336304, +275.863647
1494288498.953247, 1494288498.955672, -5.126038, +3.546021, -1.775757, -5.874634, -111.038208, +275.863647
1494288498.955941, 1494288498.958377, -5.126038, +3.546021, -1.775757, -5.874634, -239.944458, +335.983276
1494288498.958645, 1494288498.961067, -5.998535, -0.158386, -1.960144, -7.797241, -238.845825, +335.983276
1494288498.961339, 1494288498.963767, -5.998535, -0.158386, -1.960144, -7.797241, -264.755249, +275.238037
1494288498.964036, 1494288498.966461, -5.998535, -0.158386, -1.960144, +41.397095, -264.755249, +275.238037
1494288498.966735, 1494288498.969099, -5.998535, -0.158386, -1.960144, +25.772095, -45.776367, +105.133057
1494288498.969366, 1494288498.971663, -4.824646, +0.087708, +2.025513, +25.070190, -45.776367, +105.133057
1494288498.971929, 1494288498.974225, -4.824646, +0.087708, +2.025513, +25.070190, -12.222290, -29.861450
1494288498.974490, 1494288498.976784, -4.824646, +0.087708, +2.025513, -50.262451, -12.222290, -29.861450
1494288498.977049, 1494288498.979361, -4.824646, +0.087708, +2.025513, -50.262451, +3.402710, -108.306885
1494288498.979624, 1494288498.982080, +2.489685, +2.474304, +0.482666, -28.244019, +3.723145, -108.306885
1494288498.982343, 1494288498.984640, +2.489685, +2.474304, +0.482666, -28.244019, +43.029785, -172.439575
1494288498.984905, 1494288498.987204, +2.489685, +2.474304, +0.482666, -39.413452, +43.029785, -172.439575
1494288498.987468, 1494288498.989959, +2.489685, +2.474304, +1.232666, -39.413452, +27.099609, -157.989502
1494288498.990229, 1494288498.992613, +1.015137, +0.872314, +1.235413, -90.408325, +27.099609, -157.989502
1494288498.992883, 1494288498.995555, +1.015137, +0.872314, +1.235413, -93.399048, +92.330933, -167.861938
1494288498.995832, 1494288498.998262, +1.015137, +0.872314, +1.235413, -93.399048, +92.330933, -167.861938
1494288498.998535, 1494288499.000953, +1.015137, -0.390564, +0.128540, -87.493896, +138.092041, -185.943604
1494288499.001228, 1494288499.003657, -1.631836, -0.390564, +0.128540, -87.493896, +138.092041, -185.943604
1494288499.003934, 1494288499.006358, -1.631836, -0.390564, +0.128540, -76.263428, +152.633667, -193.817139
1494288499.006632, 1494288499.009077, -1.631836, -0.390564, +0.128540, -76.263428, +152.633667, -193.817139
1494288499.009350, 1494288499.011774, +0.115723, +0.389832, -0.477173, -75.454712, +158.325195, -186.492920
1494288499.012049, 1494288499.014472, +0.115723, +0.389832, -0.477173, -75.454712, +158.325195, -186.492920
1494288499.014748, 1494288499.017174, +0.115723, +0.389832, -0.477173, -79.986572, +150.970459, -172.164917
1494288499.017451, 1494288499.019775, +0.115723, +0.389832, -0.477173, -79.986572, +150.970459, -172.164917
1494288499.020044, 1494288499.022335, +0.124329, +0.132751, -0.474792, -80.917358, +128.265381, -158.096313
1494288499.022602, 1494288499.024902, +0.124329, +0.132751, -0.474792, -80.917358, +128.265381, -158.096313
1494288499.025170, 1494288499.027464, +0.124329, +0.132751, -0.474792, -78.521729, +104.354858, -148.895264
1494288499.027773, 1494288499.030069, +0.124329, +0.132751, -0.474792, -78.521729, +104.354858, -148.895264
1494288499.030337, 1494288499.032633, -0.496399, +0.124878, -0.304321, -80.734253, +80.154419, -144.226074
1494288499.032901, 1494288499.035203, -0.496399, +0.124878, -0.304321, -80.734253, +80.154419, -144.226074
1494288499.035471, 1494288499.037899, -0.496399, +0.124878, -0.304321, -82.702637, +56.015015, -140.975952
1494288499.038167, 1494288499.040470, -0.496399, +0.124878, -0.304321, -82.702637, +56.015015, -140.975952
1494288499.040848, 1494288499.043148, +0.123230, +0.245544, -0.327026, -83.801270, +36.926270, -134.994507
1494288499.043416, 1494288499.045712, +0.123230, +0.245544, -0.327026, -83.801270, +36.926270, -134.994507
1494288499.045980, 1494288499.048469, +0.123230, +0.245544, -0.327026, -82.824707, +21.881104, -123.336792
1494288499.048745, 1494288499.051172, +0.123230, +0.245544, -0.397522, -82.824707, +21.881104, -123.336792
1494288499.051448, 1494288499.053867, +1.141663, +0.143555, -0.397522, -79.910278, +11.489868, -108.352661
1494288499.054141, 1494288499.056563, +1.141663, +0.143555, -0.397522, -79.910278, +11.489868, -108.352661
1494288499.056838, 1494288499.059207, +1.141663, +0.143555, -0.397522, -76.980591, +8.682251, -91.232300
1494288499.059471, 1494288499.061765, +1.141663, -0.247375, -0.408142, -76.980591, +8.682251, -91.232300
1494288499.062028, 1494288499.064318, +1.712585, -0.247375, -0.408142, -73.776245, +15.014648, -74.417114
1494288499.064585, 1494288499.066887, +1.712585, -0.247375, -0.408142, -73.776245, +15.014648, -74.417114
1494288499.067153, 1494288499.069587, +1.712585, -0.247375, -0.408142, -68.405151, +26.931763, -56.793213
1494288499.069860, 1494288499.072289, +1.525085, -0.733887, -0.425537, -68.405151, +26.931763, -56.793213
1494288499.072563, 1494288499.074987, +1.545410, -0.733887, -0.425537, -60.546875, +44.281006, -38.375854
1494288499.075260, 1494288499.077685, +1.545410, -0.733887, -0.425537, -60.546875, +44.281006, -38.375854
1494288499.078007, 1494288499.080432, +1.545410, -0.733887, -0.425537, -52.932739, +65.231323, -20.828247
1494288499.080705, 1494288499.083124, +0.974487, -0.793030, -0.415833, -52.932739, +65.231323, -20.828247
1494288499.083397, 1494288499.085819, +0.974487, -0.793030, -0.415833, -47.409058, +86.212158, -4.837036
1494288499.086091, 1494288499.088561, +0.974487, -0.793030, -0.415833, -47.409058, +86.212158, -4.837036
1494288499.088835, 1494288499.091259, +0.974487, -0.793030, -0.415833, -42.694092, +100.997925, +8.010864
1494288499.091531, 1494288499.093963, +0.422424, -0.600037, -0.507568, -42.694092, +100.997925, +8.010864
1494288499.094237, 1494288499.096658, +0.422424, -0.600037, -0.507568, -36.788940, +108.673096, +17.456055
1494288499.096933, 1494288499.099369, +0.422424, -0.600037, -0.507568, -36.788940, +108.673096, +17.456055
1494288499.099643, 1494288499.102073, +0.422424, -0.600037, -0.684814, -27.954102, +110.824585, +22.949219
1494288499.102347, 1494288499.104925, +0.009705, -0.478821, -0.684814, -27.954102, +110.824585, +26.855469
1494288499.105200, 1494288499.107613, +0.009705, -0.478821, -0.684814, -15.380859, +109.130859, +25.039673
1494288499.108270, 1494288499.110569, +0.009705, -0.478821, -0.684814, -15.380859, +109.130859, +25.421143
1494288499.110841, 1494288499.113136, -0.213501, -0.329956, -0.615784, -3.326416, +105.056763, +25.421143
1494288499.113400, 1494288499.115703, -0.213501, -0.329956, -0.615784, -3.326416, +105.056763, +23.559570
1494288499.115968, 1494288499.118348, -0.213501, -0.329956, -0.615784, +4.745483, +97.961426, +23.559570
1494288499.118621, 1494288499.121041, -0.213501, -0.329956, -0.615784, +4.745483, +97.961426, +21.438599
1494288499.121313, 1494288499.123735, -0.176331, -0.158936, -0.453186, +8.941650, +87.860107, +21.438599
1494288499.124008, 1494288499.126428, -0.176331, -0.158936, -0.453186, +8.941650, +87.860107, +20.553589
1494288499.126700, 1494288499.129170, -0.176331, -0.158936, -0.453186, +10.803223, +74.645996, +20.553589
1494288499.129446, 1494288499.131874, -0.176331, -0.158936, -0.453186, +10.803223, +62.927246, +22.201538
1494288499.132150, 1494288499.134576, +0.147949, -0.080017, -0.377930, +9.811401, +63.980103, +22.201538
1494288499.134849, 1494288499.137276, +0.147949, -0.080017, -0.377930, +9.811401, +53.009033, +26.718140
1494288499.137549, 1494288499.139865, +0.147949, -0.080017, -0.377930, +7.415771, +53.009033, +26.718140
1494288499.140130, 1494288499.142426, +0.147949, -0.080017, -0.390564, +7.415771, +42.770386, +32.516479
1494288499.142690, 1494288499.144990, +0.540710, -0.028381, -0.390564, +8.712769, +42.770386, +32.516479
1494288499.145359, 1494288499.147657, +0.540710, -0.028381, -0.390564, +8.712769, +38.864136, +37.261963
1494288499.147983, 1494288499.150283, +0.540710, -0.028381, -0.390564, +9.994507, +36.575317, +37.261963
1494288499.150549, 1494288499.152844, +0.540710, -0.122131, -0.316772, +9.994507, +32.669067, +40.893555
1494288499.153108, 1494288499.155404, +0.706787, -0.095398, -0.316772, +13.626099, +34.271240, +40.893555
1494288499.155672, 1494288499.158097, +0.706787, -0.095398, -0.316772, +13.626099, +34.271240, +42.037964
1494288499.158364, 1494288499.160656, +0.706787, -0.095398, -0.316772, +17.730713, +35.156250, +42.037964
1494288499.160921, 1494288499.163218, +0.706787, -0.200134, -0.228699, +17.730713, +35.156250, +41.046143
1494288499.163484, 1494288499.165786, +0.579346, -0.200134, -0.228699, +22.216797, +35.995483, +41.046143
1494288499.166051, 1494288499.168498, +0.579346, -0.200134, -0.228699, +22.216797, +35.995483, +39.337158
1494288499.168773, 1494288499.171195, +0.579346, -0.200134, -0.228699, +26.855469, +36.819458, +39.337158
1494288499.171469, 1494288499.173892, +0.270081, -0.184753, -0.124329, +26.855469, +32.913208, +38.024902
1494288499.174168, 1494288499.176590, +0.270081, -0.184753, -0.124329, +28.656006, +34.729004, +38.024902
1494288499.176864, 1494288499.179294, +0.270081, -0.184753, -0.124329, +28.656006, +29.556274, +37.170410
1494288499.179570, 1494288499.181995, +0.270081, -0.184753, -0.124329, +27.252197, +29.556274, +37.170410
1494288499.182269, 1494288499.184690, +0.000916, -0.043579, -0.026001, +23.345947, +20.751953, +38.803101
1494288499.184966, 1494288499.187392, +0.000916, -0.043579, -0.026001, +23.132324, +20.751953, +38.803101
1494288499.187668, 1494288499.190089, +0.000916, -0.043579, -0.026001, +19.226074, +9.902954, +41.183472
1494288499.190361, 1494288499.192793, +0.000916, -0.043579, -0.026001, +18.157959, +9.902954, +41.183472
1494288499.193065, 1494288499.195488, -0.095581, +0.078186, -0.062439, +13.732910, -1.571655, +44.525146
1494288499.195759, 1494288499.198193, -0.095581, +0.078186, -0.062439, +13.732910, -1.571655, +44.525146
1494288499.198464, 1494288499.200893, -0.095581, +0.078186, -0.062439, +12.069702, -11.383057, +48.934937
1494288499.201168, 1494288499.203588, -0.095581, +0.078186, -0.108765, +12.069702, -11.383057, +48.934937
1494288499.203865, 1494288499.206286, -0.013367, +0.100708, -0.108765, +11.230469, -16.052246, +53.405762
1494288499.206564, 1494288499.208948, -0.013367, +0.100708, -0.108765, +11.230469, -16.052246, +53.405762
1494288499.209216, 1494288499.211511, -0.013367, +0.100708, -0.108765, +12.435913, -18.295288, +58.166504
1494288499.211779, 1494288499.214079, -0.013367, +0.096313, -0.181458, +12.435913, -18.295288, +58.166504
1494288499.214345, 1494288499.216642, +0.019958, +0.096313, -0.181458, +15.701294, -19.638062, +62.332153
1494288499.216910, 1494288499.219209, +0.019958, +0.096313, -0.181458, +15.701294, -19.638062, +62.332153
1494288499.219478, 1494288499.221778, +0.019958, +0.096313, -0.181458, +18.692017, -20.828247, +65.490723
1494288499.222043, 1494288499.224503, -0.073792, +0.144470, -0.211853, +18.692017, -20.828247, +65.490723
1494288499.224773, 1494288499.227072, -0.049072, +0.144470, -0.211853, +20.904541, -23.712158, +69.091797
1494288499.227340, 1494288499.230173, -0.049072, +0.144470, -0.211853, +20.904541, -23.712158, +69.091797
1494288499.230450, 1494288499.232873, -0.049072, +0.144470, -0.211853, +22.094727, -27.328491, +73.059082
1494288499.233148, 1494288499.235571, -0.063354, +0.157471, -0.196655, +22.094727, -27.328491, +73.059082
1494288499.235845, 1494288499.238277, -0.063354, +0.157471, -0.196655, +22.735596, -30.914307, +76.522827
1494288499.238551, 1494288499.240977, -0.063354, +0.157471, -0.196655, +22.735596, -30.914307, +76.522827
1494288499.241253, 1494288499.243674, -0.063354, +0.157471, -0.196655, +22.476196, -34.881592, +79.391479
1494288499.243947, 1494288499.246367, -0.045044, +0.119202, -0.221924, +22.476196, -34.881592, +79.391479
1494288499.246752, 1494288499.249191, -0.045044, +0.119202, -0.221924, +22.735596, -38.101196, +80.932617
1494288499.249466, 1494288499.251889, -0.045044, +0.119202, -0.221924, +22.735596, -38.101196, +80.932617
1494288499.252164, 1494288499.254583, -0.045044, +0.050903, -0.237122, +24.002075, -40.710449, +81.466675
1494288499.254858, 1494288499.257284, -0.014099, +0.050903, -0.237122, +24.002075, -40.710449, +81.466675
1494288499.257558, 1494288499.259868, -0.014099, +0.050903, -0.237122, +26.702881, -43.045044, +81.466675
1494288499.260136, 1494288499.262432, -0.014099, +0.050903, -0.237122, +26.702881, -43.045044, +81.466675
1494288499.262700, 1494288499.264998, +0.079651, -0.022705, -0.243896, +29.327393, -45.593262, +81.176758
1494288499.265263, 1494288499.267559, +0.067749, -0.022705, -0.243896, +29.327393, -45.593262, +81.176758
1494288499.267826, 1494288499.270132, +0.067749, -0.022705, -0.243896, +32.546997, -47.668457, +81.207275
1494288499.270398, 1494288499.272692, +0.067749, -0.022705, -0.243896, +32.546997, -47.668457, +81.207275
1494288499.272959, 1494288499.275252, +0.091187, -0.076721, -0.217529, +35.720825, -49.346924, +81.329346
1494288499.275517, 1494288499.277932, +0.091187, -0.076721, -0.217529, +35.720825, -49.346924, +81.329346
1494288499.278223, 1494288499.280536, +0.091187, -0.076721, -0.217529, +39.306641, -50.994873, +81.588745
1494288499.280806, 1494288499.283109, +0.091187, -0.076721, -0.217529, +39.306641, -50.994873, +81.588745
1494288499.283378, 1494288499.285678, +0.024719, -0.058228, -0.173767, +43.594360, -52.322388, +81.649780
1494288499.285945, 1494288499.288359, +0.024719, -0.058228, -0.173767, +43.594360, -52.322388, +81.649780
1494288499.288635, 1494288499.291067, +0.024719, -0.058228, -0.173767, +46.188354, -53.283691, +81.634521
1494288499.291341, 1494288499.293765, +0.024719, -0.058228, -0.173767, +46.188354, -53.283691, +81.634521
1494288499.294039, 1494288499.296457, -0.062256, +0.032776, -0.125061, +47.470093, -55.297852, +81.253052
1494288499.296731, 1494288499.299168, -0.062256, +0.032776, -0.125061, +47.470093, -55.297852, +81.253052
1494288499.299444, 1494288499.301859, -0.062256, +0.032776, -0.125061, +48.187256, -57.754517, +81.268311
1494288499.302133, 1494288499.304560, -0.062256, +0.032776, -0.125061, +48.187256, -57.754517, +81.268311
1494288499.304836, 1494288499.307260, -0.099243, +0.125793, -0.120483, +47.119141, -59.585571, +81.497192
1494288499.307535, 1494288499.309967, -0.099243, +0.125793, -0.120483, +47.119141, -59.585571, +81.497192
1494288499.310243, 1494288499.312670, -0.099243, +0.125793, -0.120483, +45.700073, -61.019897, +81.710815
1494288499.312945, 1494288499.315367, -0.099243, +0.172668, -0.221008, +45.700073, -61.019897, +81.710815
1494288499.315645, 1494288499.318053, -0.101074, +0.163147, -0.221008, +45.333862, -62.393188, +81.802368
1494288499.318320, 1494288499.320623, -0.101074, +0.163147, -0.221008, +45.333862, -62.393188, +81.802368
1494288499.320888, 1494288499.323184, -0.101074, +0.163147, -0.221008, +47.470093, -65.307617, +81.054688
1494288499.323451, 1494288499.325752, -0.101074, +0.165161, -0.360718, +47.470093, -65.307617, +81.054688
1494288499.326020, 1494288499.328411, -0.118469, +0.165161, -0.360718, +51.284790, -72.769165, +79.666138
1494288499.328686, 1494288499.331111, -0.118469, +0.165161, -0.360718, +51.284790, -72.769165, +75.759888
1494288499.331385, 1494288499.333812, -0.118469, +0.165161, -0.360718, +54.244995, -81.710815, +77.529907
1494288499.334087, 1494288499.336506, -0.076355, +0.209106, -0.311279, +54.244995, -81.710815, +77.529907
1494288499.336782, 1494288499.339214, -0.076355, +0.209106, -0.311279, +54.641724, -88.882446, +75.241089
1494288499.339488, 1494288499.341912, -0.076355, +0.209106, -0.311279, +54.641724, -88.882446, +71.517944
1494288499.342186, 1494288499.344793, -0.076355, +0.209106, -0.311279, +52.474976, -94.787598, +71.517944
1494288499.345067, 1494288499.347479, -0.211121, +0.325562, -0.197205, +52.474976, -102.600098, +65.750122
1494288499.348152, 1494288499.350578, -0.211121, +0.325562, -0.197205, +49.835205, -102.203369, +65.750122
1494288499.350966, 1494288499.353390, -0.211121, +0.325562, -0.197205, +43.823242, -112.411499, +59.280396
1494288499.353665, 1494288499.356087, -0.211121, +0.450989, -0.006958, +43.823242, -112.411499, +59.280396
1494288499.356364, 1494288499.358797, -0.492920, +0.450989, -0.006958, +32.730103, -125.488281, +50.216675
1494288499.359075, 1494288499.361496, -0.492920, +0.450989, -0.006958, +32.730103, -125.488281, +50.216675
1494288499.361772, 1494288499.364194, -0.492920, +0.450989, -0.006958, +20.233154, -138.107300, +38.528442
1494288499.364469, 1494288499.366893, -0.643250, +0.554993, +0.083313, +20.233154, -138.107300, +38.528442
1494288499.367167, 1494288499.369514, -0.643250, +0.554993, +0.083313, +7.919312, -140.335083, +27.709961
1494288499.369780, 1494288499.372073, -0.643250, +0.554993, +0.083313, +7.919312, -140.335083, +27.709961
1494288499.372339, 1494288499.374635, -0.643250, +0.554993, +0.083313, -3.845215, -137.756348, +16.189575
1494288499.374899, 1494288499.377204, -0.568726, +0.704224, +0.458313, -3.845215, -137.756348, +16.189575
1494288499.377467, 1494288499.379772, -0.568726, +0.704224, +0.458313, -12.481689, -138.290405, +0.930786
1494288499.380036, 1494288499.382337, -0.568726, +0.704224, +0.458313, -12.481689, -138.290405, +0.930786
1494288499.382601, 1494288499.384901, -0.568726, +0.704224, +0.458313, -17.120361, -131.042480, -16.418457
1494288499.385169, 1494288499.387465, -0.264771, +0.781311, +0.831665, -17.120361, -131.042480, -16.418457
1494288499.387777, 1494288499.390080, -0.264771, +0.781311, +0.831665, -18.554688, -114.334106, -34.271240
1494288499.390348, 1494288499.392645, -0.264771, +0.781311, +0.831665, -18.554688, -114.334106, -34.271240
1494288499.392911, 1494288499.395208, -0.264771, +0.781311, +0.831665, -15.487671, -86.395264, -54.870605
1494288499.395473, 1494288499.397898, -0.329773, +0.653320, +0.960571, -15.487671, -86.395264, -54.870605
1494288499.398165, 1494288499.400458, -0.329773, +0.653320, +0.960571, -12.176514, -44.052124, -80.230713
1494288499.400726, 1494288499.403025, -0.329773, +0.653320, +0.960571, -12.176514, -44.052124, -80.230713
1494288499.403293, 1494288499.405591, -0.329773, +0.653320, +0.960571, -12.176514, +1.083374, -104.354858
1494288499.405855, 1494288499.408295, -1.419250, +0.761169, +1.113647, -11.779785, +1.083374, -104.354858
1494288499.408564, 1494288499.410995, -1.419250, +0.761169, +1.113647, -15.686035, +27.847290, -126.113892
1494288499.411269, 1494288499.413693, -1.419250, +0.761169, +1.113647, -16.952515, +27.847290, -126.113892
1494288499.413966, 1494288499.416387, -1.419250, +0.761169, +3.363647, -71.685791, +55.511475, -133.590698
1494288499.416660, 1494288499.419018, -5.729736, +1.323303, +3.331604, -71.685791, +55.511475, -133.590698
1494288499.419283, 1494288499.421579, -5.729736, +1.323303, +3.331604, -203.094482, +175.476074, -173.019409
1494288499.421842, 1494288499.424146, -5.729736, +1.323303, +3.331604, -203.094482, +175.476074, -173.019409
1494288499.424409, 1494288499.426712, -5.729736, +1.323303, +3.660461, -300.750732, +338.027954, -294.692993
1494288499.426974, 1494288499.429399, -5.998352, +5.597534, +3.660461, -296.951294, +338.027954, -294.692993
1494288499.429670, 1494288499.432098, -5.998352, +5.597534, +3.660461, -148.284912, +136.566162, -346.206665
1494288499.432370, 1494288499.434796, -5.998352, +5.597534, +3.660461, -148.284912, +136.566162, -346.206665
1494288499.435067, 1494288499.437491, -5.998352, +5.998535, -3.608643, +40.908813, +20.660400, -330.764771
1494288499.437772, 1494288499.440198, +3.051636, +5.998535, -3.608643, +40.908813, +20.660400, -330.764771
1494288499.440469, 1494288499.442894, +3.051636, +5.998535, -3.608643, -1.296997, +289.596558, -336.578369
1494288499.443163, 1494288499.445587, +3.051636, +5.998535, -3.608643, -1.296997, +289.596558, -336.578369
1494288499.445854, 1494288499.448282, +5.998535, +3.222290, -2.352173, -216.110229, +178.115845, -251.098633
1494288499.448553, 1494288499.450976, +5.998535, +3.222290, -2.352173, -216.110229, +178.115845, -251.098633
1494288499.451361, 1494288499.453789, +5.998535, +3.222290, -2.352173, -223.083496, -215.179443, -101.028442
1494288499.454060, 1494288499.456481, +5.998535, +3.222290, -2.352173, -223.083496, -215.179443, -101.028442
1494288499.456752, 1494288499.459183, +3.609558, -2.882812, -3.770691, -110.580444, -302.551270, +179.672241
1494288499.459456, 1494288499.461884, +3.609558, -2.882812, -3.770691, -110.580444, -302.551270, +179.672241
1494288499.462158, 1494288499.464783, +3.609558, -2.882812, -3.770691, +135.284424, -109.619141, +217.941284
1494288499.465053, 1494288499.467464, +3.609558, -2.882812, -0.441284, +135.284424, -109.619141, +217.941284
1494288499.468133, 1494288499.470437, -2.626648, -0.656616, -0.441284, +72.952271, +194.152832, -23.147583
1494288499.470705, 1494288499.473002, -2.626648, -0.656616, -0.441284, +72.952271, +194.152832, -23.147583
1494288499.473268, 1494288499.475566, -2.626648, -0.656616, -0.441284, -56.030273, +332.702637, -226.364136
1494288499.475834, 1494288499.478193, -3.189148, +4.149170, -0.059692, -56.030273, +332.702637, -226.364136
1494288499.478467, 1494288499.480888, -3.190979, +4.149170, -0.059692, +5.065918, +140.716553, -183.975220
1494288499.481158, 1494288499.483580, -3.190979, +4.149170, -0.059692, +5.065918, +140.716553, -183.975220
1494288499.483850, 1494288499.486275, -3.190979, +4.149170, -0.059692, -125.335693, -34.744263, -22.323608
1494288499.486547, 1494288499.488989, +0.842285, +5.998535, +1.987244, -125.335693, -34.744263, +28.457642
1494288499.489263, 1494288499.491682, +0.842285, +5.998535, +1.987244, -157.302856, -80.551147, +30.807495
1494288499.491958, 1494288499.494381, +0.842285, +5.998535, +1.987244, -157.302856, -80.551147, -95.779419
1494288499.494655, 1494288499.497082, +0.842285, +5.998535, +1.987244, -113.998413, -14.343262, -95.779419
1494288499.497355, 1494288499.499685, +2.157166, +3.722168, -0.176514, -113.998413, -14.343262, -148.666382
1494288499.499951, 1494288499.502256, +2.157166, +3.722168, -0.176514, -105.911255, +57.312012, -148.666382
1494288499.502521, 1494288499.504816, +2.157166, +3.722168, -0.176514, -105.911255, +57.312012, -118.118286
1494288499.505082, 1494288499.507380, +2.157166, +3.722168, -0.176514, -80.169678, +100.387573, -118.118286
1494288499.507645, 1494288499.509950, -0.656067, -1.186523, -0.160767, -80.169678, +100.387573, -86.868286
1494288499.510218, 1494288499.512513, -0.656067, -1.186523, -0.160767, -52.490234, +95.809937, -87.249756
1494288499.512780, 1494288499.515074, -0.656067, -1.186523, -0.160767, -52.490234, +95.809937, -87.249756
1494288499.515341, 1494288499.517642, -0.656067, -1.186523, -0.160767, -47.149658, +80.657959, -67.855835
1494288499.518088, 1494288499.520389, -1.367981, -0.684265, -0.266785, -47.149658, +80.657959, -67.855835
1494288499.520654, 1494288499.522958, -1.367981, -0.684265, -0.266785, -35.507202, +58.166504, -65.368652
1494288499.523222, 1494288499.525516, -1.367981, -0.684265, -0.266785, -35.507202, +58.166504, -65.368652
1494288499.525781, 1494288499.528252, -1.367981, -0.684265, +0.998840, -27.450562, +46.875000, -49.301147
1494288499.528525, 1494288499.530953, -1.357910, -0.158936, +1.022095, -27.450562, +46.875000, -10.238647
1494288499.531225, 1494288499.533644, -1.357910, -0.158936, +1.022095, -26.718140, +33.630371, -9.338379
1494288499.533916, 1494288499.536341, -1.357910, -0.158936, +1.022095, -26.718140, +33.630371, +21.911621
1494288499.536615, 1494288499.539056, -1.357910, +0.732422, +1.254822, -17.288208, +12.237549, +21.850586
1494288499.539328, 1494288499.541751, -0.439087, +0.732422, +1.254822, -17.288208, +12.237549, +35.430908
1494288499.542023, 1494288499.544452, -0.439087, +0.732422, +1.254822, -7.293701, +9.292603, +35.430908
1494288499.544722, 1494288499.547142, -0.439087, +0.732422, +1.254822, -7.293701, +9.292603, +44.860840
1494288499.547411, 1494288499.549842, -0.199585, +1.207764, +0.831848, -2.075195, +17.303467, +44.860840
1494288499.550112, 1494288499.552540, -0.199585, +1.207764, +0.831848, -2.075195, +29.022217, +50.811768
1494288499.552912, 1494288499.555338, -0.199585, +1.207764, +0.831848, +4.791260, +28.182983, +50.811768
1494288499.555608, 1494288499.558042, -0.199585, +1.207764, +0.831848, +4.791260, +33.294678, +53.756714
1494288499.558314, 1494288499.560736, -0.475891, +1.040039, -0.123047, +11.672974, +33.294678, +53.756714
1494288499.561012, 1494288499.563429, -0.475891, +1.040039, -0.123047, +19.485474, +30.334473, +56.762695
1494288499.563704, 1494288499.566129, -0.475891, +1.040039, -0.123047, +17.715454, +30.334473, +56.762695
1494288499.566403, 1494288499.568790, -0.475891, +1.040039, -0.262207, +21.209717, +23.239136, +58.883667
1494288499.569055, 1494288499.571352, -0.527344, +1.111633, -0.262207, +21.209717, +23.239136, +58.883667
1494288499.571619, 1494288499.573919, -0.527344, +1.111633, -0.262207, +25.115967, +15.975952, +57.540894
1494288499.574186, 1494288499.576480, -0.527344, +1.111633, -0.262207, +24.047852, +15.975952, +57.540894
1494288499.576746, 1494288499.579162, -0.527344, +1.111633, +0.004395, +27.954102, +11.917114, +55.343628
1494288499.579438, 1494288499.581867, -0.220459, +1.220032, +0.004395, +27.847290, +11.917114, +55.343628
1494288499.582141, 1494288499.584676, -0.220459, +1.220032, +0.004395, +31.753540, +9.292603, +53.176880
1494288499.584950, 1494288499.587363, -0.220459, +1.220032, +0.004395, +31.799316, +9.292603, +53.176880
1494288499.588079, 1494288499.590508, -0.278687, +1.270203, +0.086060, +35.156250, +4.577637, +51.712036
1494288499.590782, 1494288499.593203, -0.278687, +1.270203, +0.086060, +35.156250, +4.577637, +51.712036
1494288499.593475, 1494288499.595902, -0.278687, +1.270203, +0.086060, +38.131714, -1.373291, +52.322388
1494288499.596176, 1494288499.598605, -0.278687, +1.270203, +0.086060, +38.131714, -1.373291, +52.322388
1494288499.598877, 1494288499.601301, -0.274109, +1.226990, +0.036621, +39.779663, -6.454468, +53.207397
1494288499.601572, 1494288499.603991, -0.274109, +1.226990, +0.036621, +39.779663, -6.454468, +53.207397
1494288499.604263, 1494288499.606682, -0.274109, +1.226990, +0.036621, +40.573120, -8.422852, +54.473877
1494288499.606954, 1494288499.609311, -0.274109, +1.226990, +0.083496, +40.573120, -8.422852, +54.473877
1494288499.609576, 1494288499.611871, -0.294067, +1.105408, +0.076721, +40.893555, -7.751465, +56.884766
1494288499.612134, 1494288499.614432, -0.294067, +1.105408, +0.076721, +40.893555, -7.751465, +56.884766
1494288499.614697, 1494288499.616995, -0.294067, +1.105408, +0.076721, +40.527344, -5.035400, +59.448242
1494288499.617259, 1494288499.619565, -0.294067, +1.105408, +0.194458, +40.527344, -5.035400, +59.448242
1494288499.619830, 1494288499.622128, -0.320984, +0.975769, +0.194458, +39.886475, -3.036499, +62.774658
1494288499.622393, 1494288499.624686, -0.320984, +0.975769, +0.194458, +39.886475, -3.036499, +62.774658
1494288499.624947, 1494288499.627244, -0.320984, +0.975769, +0.194458, +37.796021, -0.701904, +66.619873
1494288499.627509, 1494288499.629861, -0.320984, +0.975769, +0.175598, +37.796021, -0.701904, +66.619873
1494288499.630125, 1494288499.632419, -0.449158, +0.875793, +0.175598, +35.720825, +1.617432, +70.983887
1494288499.632682, 1494288499.634982, -0.449158, +0.875793, +0.175598, +35.720825, +1.617432, +70.983887
1494288499.635246, 1494288499.637546, -0.449158, +0.875793, +0.175598, +32.821655, +2.563477, +75.302124
1494288499.637873, 1494288499.640190, -0.449158, +0.875793, +0.082581, +32.821655, +2.563477, +75.302124
1494288499.640456, 1494288499.642758, -0.461792, +0.871216, +0.082581, +30.303955, +3.341675, +79.666138
1494288499.643022, 1494288499.645318, -0.461792, +0.871216, +0.082581, +30.303955, +3.341675, +79.666138
1494288499.645583, 1494288499.647900, -0.461792, +0.871216, +0.082581, +27.786255, +4.364014, +83.724976
1494288499.648174, 1494288499.650602, -0.461792, +0.855652, +0.005310, +27.786255, +4.364014, +83.724976
1494288499.650877, 1494288499.653300, -0.422241, +0.855652, +0.005310, +25.390625, +6.973267, +86.349487
1494288499.653573, 1494288499.655993, -0.422241, +0.855652, +0.005310, +25.390625, +6.973267, +86.349487
1494288499.656373, 1494288499.658762, -0.422241, +0.855652, +0.005310, +23.727417, +11.535645, +86.914062
1494288499.659029, 1494288499.661324, -0.298645, +0.919189, -0.003662, +23.727417, +11.535645, +86.914062
1494288499.661591, 1494288499.663898, -0.298645, +0.919189, -0.003662, +23.483276, +17.135620, +86.975098
1494288499.664165, 1494288499.666461, -0.298645, +0.919189, -0.003662, +23.483276, +17.135620, +86.975098
1494288499.666729, 1494288499.669104, -0.298645, +0.919189, -0.003662, +23.651123, +23.025513, +85.159302
1494288499.669380, 1494288499.671808, -0.099060, +0.977966, -0.053650, +23.651123, +23.025513, +85.159302
1494288499.672083, 1494288499.674506, -0.099060, +0.977966, -0.053650, +23.880005, +28.289795, +81.817627
1494288499.674781, 1494288499.677204, -0.099060, +0.977966, -0.053650, +23.880005, +28.289795, +81.817627
1494288499.677478, 1494288499.679836, -0.099060, +0.977966, -0.053650, +24.978638, +33.599854, +78.125000
1494288499.680103, 1494288499.682399, +0.128723, +0.962219, -0.220459, +24.978638, +33.599854, +78.125000
1494288499.682664, 1494288499.684970, +0.128723, +0.962219, -0.220459, +25.573730, +39.108276, +74.920654
1494288499.685237, 1494288499.687534, +0.128723, +0.962219, -0.220459, +25.573730, +39.108276, +74.920654
1494288499.687785, 1494288499.690198, +0.128723, +0.962219, -0.220459, +27.221680, +44.799805, +72.006226
1494288499.690472, 1494288499.692882, +0.156738, +0.820679, -0.448975, +27.221680, +44.799805, +72.006226
1494288499.693156, 1494288499.695564, +0.156738, +0.820679, -0.448975, +30.471802, +49.545288, +70.526123
1494288499.695838, 1494288499.698410, +0.156738, +0.820679, -0.448975, +30.471802, +49.545288, +70.526123
1494288499.698682, 1494288499.701070, +0.156738, +0.820679, -0.568176, +32.180786, +50.491333, +69.458008
1494288499.701341, 1494288499.703806, -0.028381, +0.836060, -0.568176, +32.180786, +50.491333, +69.458008
1494288499.704227, 1494288499.706627, -0.028381, +0.836060, -0.568176, +33.065796, +46.722412, +68.222046
1494288499.706903, 1494288499.709714, -0.028381, +0.836060, -0.568176, +33.065796, +46.722412, +68.222046
1494288499.709984, 1494288499.712286, -0.075073, +1.073547, -0.350098, +30.197144, +38.223267, +66.940308
1494288499.712555, 1494288499.714849, -0.075073, +1.073547, -0.350098, +30.197144, +38.223267, +66.940308
1494288499.715115, 1494288499.717413, -0.075073, +1.073547, -0.350098, +26.290894, +26.885986, +65.841675
1494288499.717679, 1494288499.720107, -0.075073, +1.073547, -0.350098, +26.290894, +26.885986, +65.841675
1494288499.720382, 1494288499.722804, -0.001099, +1.187256, -0.025818, +22.735596, +14.923096, +64.575195
1494288499.723080, 1494288499.725500, -0.001099, +1.187256, -0.025818, +22.735596, +14.923096, +64.575195
1494288499.725774, 1494288499.728215, -0.001099, +1.187256, -0.025818, +21.453857, +3.753662, +62.576294
1494288499.728487, 1494288499.730905, -0.001099, +1.187256, -0.025818, +21.453857, +3.753662, +58.670044
1494288499.731176, 1494288499.733600, -0.013184, +1.217285, +0.088257, +20.858765, -4.699707, +60.379028
1494288499.733872, 1494288499.736296, -0.013184, +1.217285, +0.088257, +20.858765, -4.699707, +59.097290
1494288499.736565, 1494288499.738935, -0.013184, +1.217285, +0.088257, +20.996094, -11.795044, +59.097290
1494288499.739203, 1494288499.741505, -0.013184, +1.217285, -0.003113, +20.996094, -11.795044, +57.357788
1494288499.741772, 1494288499.744072, -0.036987, +1.096619, -0.003113, +22.003174, -17.944336, +57.357788
1494288499.744338, 1494288499.746631, -0.036987, +1.096619, -0.003113, +22.003174, -17.944336, +53.451538
1494288499.746898, 1494288499.749205, -0.036987, +1.096619, -0.003113, +23.788452, -21.591187, +54.473877
1494288499.749473, 1494288499.751768, -0.036987, +0.955994, -0.051086, +23.788452, -21.591187, +54.473877
1494288499.752034, 1494288499.754336, -0.120117, +0.952148, -0.051086, +23.712158, -23.742676, +52.032471
1494288499.754603, 1494288499.756901, -0.120117, +0.952148, -0.051086, +23.712158, -23.742676, +52.032471
1494288499.757168, 1494288499.759618, -0.120117, +0.952148, -0.051086, +22.262573, -26.733398, +48.751831
1494288499.759992, 1494288499.762299, -0.120117, +0.952881, -0.043396, +22.262573, -26.733398, +48.751831
1494288499.762566, 1494288499.764865, -0.028564, +0.952881, -0.043396, +21.667480, -28.869629, +46.142578
1494288499.765133, 1494288499.767434, -0.028564, +0.952881, -0.043396, +21.667480, -28.869629, +46.142578
1494288499.767855, 1494288499.770288, -0.028564, +0.952881, -0.043396, +20.309448, -31.570435, +44.357300
1494288499.770562, 1494288499.772982, -0.019958, +1.007263, -0.085510, +20.309448, -31.570435, +40.451050
1494288499.773256, 1494288499.775678, -0.019958, +1.007263, -0.085510, +19.058228, -32.287598, +41.030884
1494288499.775952, 1494288499.778381, -0.019958, +1.007263, -0.085510, +19.058228, -32.287598, +37.506104
1494288499.778655, 1494288499.781076, -0.019958, +1.007263, -0.085510, +17.578125, -29.678345, +37.506104
1494288499.781354, 1494288499.783782, +0.034424, +1.102661, -0.103271, +17.578125, -29.678345, +33.950806
1494288499.784056, 1494288499.786474, +0.034424, +1.102661, -0.103271, +15.991211, -30.090332, +33.950806
1494288499.786749, 1494288499.789110, +0.034424, +1.102661, -0.103271, +15.991211, -30.090332, +31.265259
1494288499.789377, 1494288499.791677, +0.034424, +1.102661, -0.103271, +15.853882, -31.204224, +31.265259
1494288499.791943, 1494288499.794240, +0.067383, +1.078308, -0.169373, +15.853882, -31.204224, +28.457642
1494288499.794505, 1494288499.796804, +0.067383, +1.078308, -0.169373, +15.304565, -30.700684, +28.457642
1494288499.797069, 1494288499.799374, +0.067383, +1.078308, -0.169373, +15.304565, -30.700684, +24.841309
1494288499.799640, 1494288499.802091, +0.067383, +1.078308, -0.169373, +13.259888, -28.854370, +24.841309
1494288499.802359, 1494288499.804650, +0.023804, +1.091675, -0.156555, +13.259888, -28.854370, +20.874023
1494288499.804919, 1494288499.807210, +0.023804, +1.091675, -0.156555, +11.032104, -26.489258, +20.874023
1494288499.807476, 1494288499.809874, +0.023804, +1.091675, -0.156555, +11.032104, -26.489258, +16.952515
1494288499.810141, 1494288499.812437, +0.023804, +1.091675, -0.179810, +10.025024, -25.329590, +16.952515
1494288499.812704, 1494288499.815568, +0.088806, +1.031067, -0.179810, +10.025024, -25.329590, +14.389038
1494288499.815836, 1494288499.818176, +0.088806, +1.031067, -0.179810, +8.453369, -25.573730, +14.389038
1494288499.818442, 1494288499.820734, +0.088806, +1.031067, -0.179810, +8.453369, -25.573730, +12.329102
1494288499.820998, 1494288499.823285, +0.088806, +1.013855, -0.216614, +6.683350, -25.772095, +12.329102
1494288499.823549, 1494288499.825843, +0.067566, +1.013855, -0.216614, +6.683350, -25.772095, +9.735107
1494288499.826105, 1494288499.828405, +0.067566, +1.013855, -0.216614, +4.684448, -24.627686, +9.735107
1494288499.828667, 1494288499.830965, +0.067566, +1.013855, -0.216614, +4.684448, -24.627686, +8.346558
1494288499.831226, 1494288499.833520, +0.020691, +1.034363, -0.261108, +1.998901, -24.063110, +8.346558
1494288499.833783, 1494288499.836079, +0.039368, +1.034363, -0.261108, +1.998901, -24.063110, +4.440308
1494288499.836339, 1494288499.838694, +0.039368, +1.034363, -0.261108, -0.549316, -24.597168, +7.720947
1494288499.838963, 1494288499.841388, +0.039368, +1.034363, -0.261108, -0.549316, -24.597168, +7.720947
1494288499.841656, 1494288499.844074, -0.043579, +1.119690, -0.194824, -3.067017, -25.985718, +5.218506
1494288499.844344, 1494288499.846765, -0.043579, +1.119690, -0.194824, -3.067017, -25.985718, +2.548218
1494288499.847034, 1494288499.849383, -0.043579, +1.119690, -0.194824, -5.416870, -28.305054, +2.548218
1494288499.849645, 1494288499.851943, -0.043579, +1.119690, -0.194824, -5.416870, -28.305054, -0.030518
1494288499.852206, 1494288499.854503, +0.010620, +1.194763, -0.156189, -6.668091, -31.387329, -0.030518
1494288499.854765, 1494288499.857063, +0.010620, +1.194763, -0.156189, -6.668091, -31.387329, -0.030518
1494288499.857326, 1494288499.859794, +0.010620, +1.194763, -0.156189, -8.041382, -33.187866, -2.624512
1494288499.860054, 1494288499.862353, +0.010620, +1.194763, -0.156189, -8.041382, -33.187866, -6.530762
1494288499.862723, 1494288499.865021, +0.086975, +1.210327, -0.238770, -10.803223, -25.787354, -4.959106
1494288499.865286, 1494288499.867588, +0.086975, +1.210327, -0.238770, -10.803223, -25.787354, -4.959106
1494288499.867917, 1494288499.870349, +0.086975, +1.210327, -0.238770, -14.877319, -10.086060, -7.141113
1494288499.870621, 1494288499.873043, +0.086975, +1.210327, -0.238770, -14.877319, -10.086060, -11.138916
1494288499.873318, 1494288499.875742, +0.094299, +1.175171, -0.229065, -18.829346, -7.064819, -11.138916
1494288499.876014, 1494288499.878446, +0.094299, +1.175171, -0.229065, -18.829346, -7.064819, -15.533447
1494288499.878716, 1494288499.881140, +0.094299, +1.175171, -0.229065, -21.545410, -9.628296, -15.533447
1494288499.881413, 1494288499.883832, +0.094299, +1.175171, -0.178711, -21.545410, -5.722046, -20.477295
1494288499.884105, 1494288499.886525, +0.194275, +1.160522, -0.178711, -23.330688, -4.150391, -20.477295
1494288499.886795, 1494288499.889230, +0.194275, +1.160522, -0.178711, -23.330688, -0.244141, -26.931763
1494288499.889503, 1494288499.891922, +0.194275, +1.160522, -0.178711, -25.222778, -0.885010, -26.931763
1494288499.892194, 1494288499.894613, +0.194275, +1.191467, -0.063904, -25.222778, -4.638672, -33.172607
1494288499.894883, 1494288499.897306, +0.218811, +1.191467, -0.063904, -26.779175, -4.638672, -33.172607
1494288499.897578, 1494288499.899897, +0.218811, +1.191467, -0.063904, -30.685425, -1.419067, -40.100098
1494288499.900161, 1494288499.902460, +0.218811, +1.191467, -0.063904, -28.259277, -1.419067, -40.100098
1494288499.902725, 1494288499.905020, +0.196472, +1.189819, -0.082214, -28.259277, +3.387451, -46.997070
1494288499.905281, 1494288499.907578, +0.196472, +1.189819, -0.082214, -29.754639, +3.387451, -46.997070
1494288499.907849, 1494288499.910275, +0.196472, +1.189819, -0.082214, -29.754639, +7.293701, -53.512573
1494288499.910549, 1494288499.912972, +0.196472, +1.189819, -0.082214, -30.578613, +4.379272, -53.512573
1494288499.913242, 1494288499.915664, +0.215332, +1.142578, -0.107849, -30.578613, +6.942749, -60.180664
1494288499.915936, 1494288499.918367, +0.215332, +1.142578, -0.107849, -30.578613, +6.942749, -60.180664
1494288499.918638, 1494288499.921063, +0.215332, +1.142578, -0.107849, -30.578613, +11.169434, -65.841675
1494288499.921336, 1494288499.923806, +0.215332, +1.142578, -0.107849, -30.441284, +11.169434, -65.841675
1494288499.924228, 1494288499.926646, +0.273560, +1.130310, -0.127258, -29.998779, +14.404297, -70.434570
1494288499.926922, 1494288499.929589, +0.273560, +1.130310, -0.127258, -29.998779, +14.404297, -70.434570
1494288499.929863, 1494288499.932287, +0.273560, +1.130310, -0.127258, -29.235840, +18.966675, -73.898315
1494288499.932561, 1494288499.934988, +0.273560, +1.174988, -0.150879, -29.235840, +18.966675, -73.898315
1494288499.935262, 1494288499.937684, +0.295898, +1.174988, -0.150879, -29.373169, +24.185181, -77.575684
1494288499.938000, 1494288499.940294, +0.295898, +1.174988, -0.150879, -29.373169, +24.185181, -77.575684
1494288499.940562, 1494288499.942855, +0.295898, +1.174988, -0.150879, -31.997681, +28.457642, -80.993652
1494288499.943123, 1494288499.945418, +0.160583, +1.206116, -0.144104, -31.997681, +28.457642, -80.993652
1494288499.945685, 1494288499.948020, +0.160583, +1.206116, -0.144104, -33.813477, +34.225464, -85.174561
1494288499.948294, 1494288499.950712, +0.160583, +1.206116, -0.144104, -33.813477, +34.225464, -85.174561
1494288499.950986, 1494288499.953408, +0.160583, +1.206116, -0.144104, -33.569336, +38.238525, -89.202881
1494288499.953682, 1494288499.956107, -0.006226, +1.114563, -0.214966, -33.569336, +38.238525, -89.202881
1494288499.956381, 1494288499.958765, -0.006226, +1.114563, -0.214966, -32.516479, +39.398193, -92.590332
1494288499.959032, 1494288499.961328, -0.006226, +1.114563, -0.214966, -32.516479, +39.398193, -92.590332
1494288499.961596, 1494288499.963895, -0.006226, +1.114563, -0.214966, -32.791138, +38.909912, -93.719482
1494288499.964164, 1494288499.966464, -0.109131, +0.982727, -0.210205, -32.791138, +38.909912, -93.719482
1494288499.966838, 1494288499.969143, -0.109131, +0.982727, -0.210205, -34.011841, +37.063599, -92.910767
1494288499.969411, 1494288499.971705, -0.109131, +0.982727, -0.210205, -34.011841, +37.063599, -92.910767
1494288499.971973, 1494288499.974271, -0.109131, +0.982727, -0.210205, -34.423828, +31.875610, -92.071533
1494288499.974538, 1494288499.976830, -0.295349, +0.875244, -0.205261, -34.423828, +31.875610, -92.071533
1494288499.977096, 1494288499.979434, -0.295349, +0.875244, -0.205261, -34.255981, +26.199341, -91.079712
1494288499.979701, 1494288499.982004, -0.295349, +0.875244, -0.205261, -34.255981, +26.199341, -91.079712
1494288499.982270, 1494288499.984568, -0.295349, +0.875244, -0.205261, -35.308838, +19.454956, -90.637207
1494288499.984833, 1494288499.987136, -0.490173, +0.814270, -0.133484, -35.308838, +19.454956, -90.637207
1494288499.987400, 1494288499.989796, -0.490173, +0.814270, -0.133484, -37.109375, +10.894775, -89.736938
1494288499.990064, 1494288499.992357, -0.490173, +0.814270, -0.133484, -37.109375, +10.894775, -89.736938
1494288499.992625, 1494288499.994919, -0.490173, +0.814270, -0.133484, -38.192749, +2.365112, -88.272095
1494288499.995186, 1494288499.997479, -0.492554, +0.757690, -0.169739, -38.192749, +2.365112, -88.272095
1494288499.997787, 1494288500.000209, -0.492554, +0.757690, -0.169739, -38.116455, -5.111694, -87.265015
1494288500.000480, 1494288500.002902, -0.492554, +0.757690, -0.169739, -38.116455, -5.111694, -87.265015
1494288500.003174, 1494288500.005595, -0.492554, +0.757690, -0.116455, -38.558960, -11.871338, -87.173462
1494288500.005868, 1494288500.008297, -0.353943, +0.698364, -0.116455, -38.558960, -11.871338, -87.173462
1494288500.008572, 1494288500.010999, -0.353943, +0.698364, -0.116455, -40.039062, -18.630981, -86.273193
1494288500.011273, 1494288500.013697, -0.353943, +0.698364, -0.116455, -40.039062, -18.630981, -86.273193
1494288500.013971, 1494288500.016395, -0.353943, +0.673828, -0.127075, -41.183472, -25.817871, -84.991455
1494288500.016670, 1494288500.019091, -0.364929, +0.673828, -0.127075, -41.183472, -25.817871, -84.991455
1494288500.019364, 1494288500.021787, -0.364929, +0.673828, -0.127075, -42.205811, -33.355713, -85.464478
1494288500.022060, 1494288500.024479, -0.364929, +0.673828, -0.127075, -42.205811, -33.355713, -85.464478
1494288500.024754, 1494288500.027174, -0.388367, +0.875610, +0.092834, -45.974731, -43.167114, -86.227417
1494288500.027449, 1494288500.029771, -0.388367, +0.875610, +0.092834, -45.974731, -43.167114, -86.227417
1494288500.030039, 1494288500.032334, -0.388367, +0.875610, +0.092834, -50.857544, -52.490234, -84.564209
1494288500.032601, 1494288500.034898, -0.388367, +0.875610, +0.092834, -50.857544, -52.490234, -84.564209
1494288500.035165, 1494288500.037460, -0.212036, +1.073181, +0.202148, -53.665161, -54.840088, -82.107544
1494288500.037748, 1494288500.040044, -0.212036, +1.073181, +0.202148, -53.665161, -54.840088, -82.107544
1494288500.040310, 1494288500.042602, -0.212036, +1.073181, +0.202148, -54.550171, -53.054810, -81.939697
1494288500.042867, 1494288500.045328, -0.212036, +1.073181, +0.202148, -54.550171, -53.054810, -81.939697
1494288500.045598, 1494288500.048353, -0.064636, +1.000305, +0.270447, -55.328369, -45.700073, -83.328247
1494288500.048630, 1494288500.051057, -0.064636, +1.000305, +0.270447, -55.328369, -45.700073, -83.328247
1494288500.051333, 1494288500.053757, -0.064636, +1.000305, +0.270447, -56.884766, -35.430908, -84.579468
1494288500.054029, 1494288500.056455, -0.064636, +1.094055, +0.334717, -56.884766, -35.430908, -84.579468
1494288500.056728, 1494288500.059093, -0.201416, +1.083069, +0.334717, -59.997559, -27.450562, -84.518433
1494288500.059360, 1494288500.061658, -0.201416, +1.083069, +0.334717, -59.997559, -27.450562, -84.518433
1494288500.061925, 1494288500.064225, -0.201416, +1.083069, +0.334717, -62.942505, -20.645142, -86.349487
1494288500.064490, 1494288500.066786, -0.201416, +1.153381, +0.180359, -62.942505, -20.645142, -86.349487
1494288500.067157, 1494288500.069509, -0.272644, +1.153381, +0.180359, -65.002441, -15.396118, -90.194702
1494288500.069776, 1494288500.072070, -0.272644, +1.153381, +0.180359, -65.002441, -15.396118, -90.194702
1494288500.072339, 1494288500.074634, -0.272644, +1.153381, +0.180359, -63.369751, -11.596680, -93.048096
1494288500.074900, 1494288500.077195, +0.196106, +0.745972, -0.270630, -63.369751, -11.596680, -93.048096
1494288500.077460, 1494288500.079749, +0.216064, +0.745972, -0.270630, -60.134888, -4.028320, -93.795776
1494288500.080013, 1494288500.082306, +0.216064, +0.745972, -0.270630, -60.134888, -4.028320, -93.795776
1494288500.082569, 1494288500.084866, +0.216064, +0.745972, -0.270630, -56.838989, +5.737305, -93.261719
1494288500.085130, 1494288500.087421, -0.346436, +0.322266, -0.279419, -56.838989, +5.737305, -93.261719
1494288500.087685, 1494288500.090019, -0.369690, +0.322266, -0.279419, -52.902222, +12.863159, -92.895508
1494288500.090287, 1494288500.092580, -0.369690, +0.322266, -0.279419, -52.902222, +12.863159, -92.895508
1494288500.092845, 1494288500.095133, -0.369690, +0.322266, -0.279419, -47.378540, +16.098022, -91.400146
1494288500.095399, 1494288500.097695, -1.104675, +0.474609, -0.207092, -47.378540, +16.098022, -91.400146
1494288500.098135, 1494288500.100435, -1.104675, +0.474609, -0.207092, -44.281006, +9.506226, -85.739136
1494288500.100699, 1494288500.102993, -1.104675, +0.474609, -0.207092, -44.281006, +9.506226, -85.739136
1494288500.103257, 1494288500.105555, -1.104675, +0.474609, -0.207092, -43.701172, -2.960205, -77.926636
1494288500.105818, 1494288500.108267, -0.801453, +0.437256, +0.052185, -43.701172, -2.960205, -77.926636
1494288500.108534, 1494288500.110827, -0.801453, +0.437256, +0.052185, -42.022705, -11.627197, -72.570801
1494288500.111097, 1494288500.113390, -0.801453, +0.437256, +0.052185, -42.022705, -11.627197, -72.570801
1494288500.113658, 1494288500.115946, -0.801453, +0.437256, +0.052185, -36.117554, -8.911133, -65.170288
1494288500.116211, 1494288500.118542, -0.503540, +0.034058, -0.071777, -36.117554, -8.911133, -65.170288
1494288500.118807, 1494288500.121102, -0.503540, +0.034058, -0.071777, -28.259277, -4.226685, -54.382324
1494288500.121365, 1494288500.123659, -0.503540, +0.034058, -0.071777, -28.259277, -4.226685, -54.382324
1494288500.123922, 1494288500.126213, -0.503540, +0.034058, -0.071777, -24.353027, -10.940552, -45.227051
1494288500.126479, 1494288500.128775, -1.030334, +0.667236, +0.238770, -26.809692, -10.940552, -45.227051
1494288500.129040, 1494288500.131335, -1.030334, +0.667236, +0.238770, -30.715942, -24.551392, -37.033081
1494288500.131601, 1494288500.133898, -1.030334, +0.667236, +0.238770, -31.250000, -24.551392, -37.033081
1494288500.134164, 1494288500.136459, -1.030334, +0.667236, +0.238770, -31.250000, -31.585693, -27.893066
1494288500.136724, 1494288500.139023, -0.768677, +0.914612, +0.320801, -32.958984, -31.585693, -27.893066
1494288500.139288, 1494288500.141582, -0.768677, +0.914612, +0.320801, -32.958984, -31.585693, -20.874023
1494288500.141847, 1494288500.144144, -0.768677, +0.914612, +0.320801, -31.173706, -33.233643, -20.874023
1494288500.144411, 1494288500.146707, -0.768677, +0.914612, +0.320801, -31.173706, -33.233643, -15.197754
1494288500.146973, 1494288500.149403, -0.528809, +1.104858, +0.401550, -28.961182, -33.996582, -15.197754
1494288500.149679, 1494288500.152100, -0.528809, +1.104858, +0.401550, -28.961182, -33.996582, -9.307861
1494288500.152371, 1494288500.154792, -0.528809, +1.104858, +0.401550, -26.123047, -34.057617, -9.307861
1494288500.155063, 1494288500.157483, -0.528809, +1.104858, +0.214050, -26.123047, -34.057617, -5.050659
1494288500.157764, 1494288500.160192, -0.372620, +1.528748, +0.223389, -19.531250, -34.378052, -5.050659
1494288500.160463, 1494288500.162888, -0.372620, +1.528748, +0.223389, -19.531250, -31.753540, -0.137329
1494288500.163161, 1494288500.165919, -0.372620, +1.528748, +0.223389, -13.580322, -31.753540, -0.137329
1494288500.166191, 1494288500.168795, -0.278870, +1.570496, +0.288025, -11.734009, -27.816772, +1.586914
1494288500.169172, 1494288500.171562, -0.272827, +1.570496, +0.288025, -11.734009, -27.816772, +1.586914
1494288500.171832, 1494288500.174252, -0.272827, +1.570496, +0.288025, -10.162354, -26.031494, +2.899170
1494288500.174524, 1494288500.176941, -0.272827, +1.570496, +0.288025, -10.162354, -26.031494, +2.899170
1494288500.177213, 1494288500.179553, -0.365479, +1.548523, +0.591614, -4.455566, -25.878906, +3.677368
1494288500.179812, 1494288500.182113, -0.365479, +1.548523, +0.591614, -4.455566, -25.878906, +3.677368
1494288500.182371, 1494288500.184668, -0.365479, +1.548523, +0.591614, +1.327515, -22.033691, +3.540039
1494288500.184928, 1494288500.187227, -0.365479, +1.548523, +0.591614, +1.327515, -22.033691, +3.540039
1494288500.187486, 1494288500.189907, -0.230896, +1.474182, +0.675476, +7.003784, -14.907837, +4.379272
1494288500.190176, 1494288500.192604, -0.230896, +1.474182, +0.675476, +7.003784, -14.907837, +4.379272
1494288500.192873, 1494288500.195298, -0.230896, +1.474182, +0.675476, +12.664795, -7.614136, +5.493164
1494288500.195566, 1494288500.197987, -0.230896, +1.474182, +0.675476, +12.664795, -7.614136, +5.493164
1494288500.198249, 1494288500.200543, -0.295349, +1.308838, +0.446960, +20.782471, -2.563477, +6.744385
1494288500.200803, 1494288500.203102, -0.295349, +1.308838, +0.446960, +20.782471, -2.563477, +6.744385
1494288500.203360, 1494288500.205656, -0.295349, +1.308838, +0.446960, +28.823853, +0.915527, +8.529663
1494288500.205917, 1494288500.208220, -0.295349, +1.308838, +0.259460, +28.823853, +0.915527, +8.529663
1494288500.208480, 1494288500.210778, -0.365112, +1.363037, +0.259094, +35.919189, +3.326416, +11.596680
1494288500.211041, 1494288500.213339, -0.365112, +1.363037, +0.259094, +35.919189, +3.326416, +11.596680
1494288500.213604, 1494288500.215902, -0.365112, +1.363037, +0.259094, +44.403076, +5.233765, +17.089844
1494288500.216166, 1494288500.218643, -0.365112, +1.363037, +0.165344, +44.403076, +5.233765, +17.089844
1494288500.218906, 1494288500.221204, -0.448608, +1.302429, +0.163696, +54.244995, +7.019043, +23.391724
1494288500.221467, 1494288500.223763, -0.448608, +1.302429, +0.163696, +54.244995, +7.019043, +23.391724
1494288500.224024, 1494288500.226319, -0.448608, +1.302429, +0.163696, +64.346313, +7.431030, +31.753540
1494288500.226583, 1494288500.229019, -0.448608, +1.302429, +0.225769, +64.346313, +7.431030, +31.753540
1494288500.229285, 1494288500.231580, -0.509033, +1.276611, +0.225769, +73.959351, +7.568359, +41.275024
1494288500.231844, 1494288500.234142, -0.509033, +1.276611, +0.225769, +73.959351, +7.568359, +41.275024
1494288500.234405, 1494288500.236703, -0.509033, +1.276611, +0.225769, +83.114624, +9.918213, +51.437378
1494288500.236968, 1494288500.239391, -0.509033, +1.323486, +0.242981, +83.114624, +9.918213, +51.437378
1494288500.239665, 1494288500.242088, -0.564331, +1.339050, +0.242981, +89.462280, +11.123657, +61.920166
1494288500.242363, 1494288500.244791, -0.564331, +1.339050, +0.242981, +89.462280, +11.123657, +61.920166
1494288500.245064, 1494288500.247484, -0.564331, +1.339050, +0.242981, +95.855713, +12.344360, +70.816040
1494288500.247768, 1494288500.250194, -0.579163, +1.502014, +0.307434, +95.855713, +12.344360, +70.816040
1494288500.250469, 1494288500.252900, -0.579163, +1.502014, +0.307434, +100.601196, +11.260986, +77.346802
1494288500.253176, 1494288500.255600, -0.579163, +1.502014, +0.307434, +100.601196, +11.260986, +77.346802
1494288500.255873, 1494288500.258336, -0.579163, +1.502014, +0.307434, +101.257324, +5.966187, +87.127686
1494288500.258607, 1494288500.261030, -0.573486, +1.933777, +0.433960, +101.257324, +5.966187, +87.127686
1494288500.261301, 1494288500.263729, -0.573486, +1.933777, +0.433960, +102.508545, +0.747681, +99.212646
1494288500.264003, 1494288500.266427, -0.573486, +1.933777, +0.433960, +102.508545, +0.747681, +99.212646
1494288500.266700, 1494288500.269170, -0.573486, +1.933777, +0.433960, +102.325439, -5.416870, +113.052368
1494288500.269441, 1494288500.271868, -0.429199, +2.264282, +0.606262, +102.325439, -5.416870, +113.052368
1494288500.272246, 1494288500.274667, -0.429199, +2.264282, +0.606262, +100.509644, -17.623901, +126.739502
1494288500.274941, 1494288500.277363, -0.429199, +2.264282, +0.606262, +100.509644, -17.623901, +126.739502
1494288500.277640, 1494288500.279952, -0.429199, +2.760132, +0.687744, +96.801758, -41.183472, +139.968872
1494288500.280220, 1494288500.282514, -0.213684, +2.760132, +0.687744, +96.801758, -41.183472, +139.968872
1494288500.282781, 1494288500.285167, -0.213684, +2.760132, +0.687744, +94.360352, -80.886841, +157.424927
1494288500.285436, 1494288500.288155, -0.213684, +2.760132, +0.687744, +94.360352, -80.886841, +157.424927
1494288500.288434, 1494288500.290862, +0.551514, +3.370056, +0.524597, +92.346191, -128.509521, +172.180176
1494288500.291136, 1494288500.293562, +0.551514, +3.370056, +0.524597, +92.346191, -128.509521, +183.898926
1494288500.293835, 1494288500.296256, +0.551514, +3.370056, +0.524597, +87.417603, -167.022705, +186.752319
1494288500.296530, 1494288500.298963, +0.551514, +3.370056, +0.524597, +87.417603, -167.022705, +221.908569
1494288500.299236, 1494288500.301661, +2.366638, +3.464172, +0.309814, +85.494995, -185.226440, +219.696045
1494288500.301935, 1494288500.304355, +2.366638, +3.464172, +0.309814, +85.494995, -185.226440, +250.930786
1494288500.304626, 1494288500.307050, +2.366638, +3.464172, +0.309814, +88.699341, -164.627075, +250.930786
1494288500.307322, 1494288500.309756, +2.366638, +3.464172, +0.309814, +88.699341, -164.627075, +244.750977
1494288500.310031, 1494288500.312452, +3.132568, +4.113098, +0.323181, +101.074219, -95.260620, +244.750977
1494288500.312724, 1494288500.315152, +3.132568, +4.113098, +0.323181, +101.074219, -32.760620, +243.240356
1494288500.315425, 1494288500.317860, +3.132568, +4.113098, +0.323181, +100.341797, -32.958984, +243.240356
1494288500.318125, 1494288500.320421, +3.132568, +4.534973, -0.413818, +100.341797, -5.615234, +235.000610
1494288500.320683, 1494288500.322976, +2.283691, +4.517029, -0.413818, +108.581543, -4.531860, +235.000610
1494288500.323238, 1494288500.325538, +2.283691, +4.517029, -0.413818, +108.581543, -4.531860, +199.752808
1494288500.325801, 1494288500.328147, +2.283691, +4.517029, -0.413818, +143.203735, +16.204834, +199.752808
1494288500.328413, 1494288500.330705, +2.283691, +4.883972, -1.088013, +143.203735, +16.204834, +144.058228
1494288500.330968, 1494288500.333266, +1.512451, +4.883972, -1.088013, +157.760620, +21.377563, +144.058228
1494288500.333529, 1494288500.335826, +1.512451, +4.883972, -1.088013, +157.760620, +21.377563, +130.233765
1494288500.336089, 1494288500.338478, +1.512451, +4.883972, -1.088013, +121.246338, -18.264771, +130.233765
1494288500.338742, 1494288500.341043, +1.512451, +4.095520, -0.043396, +121.246338, -18.264771, +153.671265
1494288500.341309, 1494288500.343611, -3.384338, +4.095520, -0.043396, +101.135254, -142.059326, +153.793335
1494288500.343877, 1494288500.346176, -3.384338, +4.095520, -0.043396, +101.135254, -142.059326, +239.730835
1494288500.346441, 1494288500.348895, -3.384338, +4.095520, -0.043396, +80.688477, -251.327515, +238.708496
1494288500.349170, 1494288500.351597, -5.998535, +0.465271, +0.430115, +80.688477, -251.327515, +307.083130
1494288500.351872, 1494288500.354298, -5.998535, +0.465271, +0.430115, +38.436890, -255.737305, +307.083130
1494288500.354574, 1494288500.356998, -5.998535, +0.465271, +0.430115, +38.436890, -255.737305, +248.382568
1494288500.357272, 1494288500.359698, -5.998535, +0.465271, +0.430115, +1.342773, -238.479614, +248.382568
1494288500.359969, 1494288500.362392, -5.629028, -0.990967, +0.461243, +1.342773, -238.479614, +73.333740
1494288500.362662, 1494288500.365090, -5.629028, -0.990967, +0.461243, -48.706055, -183.135986, +73.333740
1494288500.365366, 1494288500.367799, -5.629028, -0.990967, +0.461243, -48.706055, -11.260986, -65.414429
1494288500.368073, 1494288500.370504, -5.629028, -0.990967, +0.461243, -65.093994, -8.499146, -65.414429
1494288500.370776, 1494288500.373196, +1.493774, +1.486084, -0.863159, -65.093994, +191.345215, -204.330444
1494288500.373578, 1494288500.376002, +1.493774, +1.486084, -0.863159, +35.644531, +191.345215, -204.330444
1494288500.376276, 1494288500.378693, +1.493774, +1.486084, -0.863159, +70.800781, +191.055298, -254.928589
1494288500.378960, 1494288500.381251, +1.493774, +1.954834, +1.255188, +72.082520, +191.055298, -254.928589
1494288500.381516, 1494288500.383812, +5.159729, +1.934326, +1.255188, -49.011230, +93.170166, -166.534424
1494288500.384076, 1494288500.386378, +5.159729, +1.934326, +1.255188, -47.363281, +93.170166, -166.534424
1494288500.386642, 1494288500.389094, +5.159729, +1.934326, +1.255188, -125.488281, +125.503540, -138.412476
1494288500.389358, 1494288500.391657, +5.159729, +0.186401, +0.531921, -128.616333, +125.503540, -138.412476
1494288500.391925, 1494288500.394223, -1.240906, +0.186401, +0.531921, -128.616333, +152.511597, -90.362549
1494288500.394491, 1494288500.396786, -1.240906, +0.186401, +0.531921, -143.981934, +152.511597, -90.362549
1494288500.397052, 1494288500.399550, -1.240906, +0.186401, +0.531921, -143.981934, +159.103394, -97.396851
1494288500.399823, 1494288500.402208, -1.756531, -0.980530, -0.312012, -114.044189, +159.103394, -97.396851
1494288500.402480, 1494288500.405032, -1.760925, -0.980530, -0.312012, -86.700439, +158.279419, -127.975464
1494288500.405307, 1494288500.408171, -1.760925, -0.980530, -0.312012, -86.837769, +158.279419, -127.975464
1494288500.408449, 1494288500.410875, -1.760925, -0.980530, -0.312012, -55.389404, +137.969971, -117.401123
1494288500.411150, 1494288500.413569, +0.501709, -0.199036, -0.957642, -55.389404, +137.969971, -117.401123
1494288500.413844, 1494288500.416268, +0.501709, -0.199036, -0.957642, -46.325684, +106.811523, -95.336914
1494288500.416542, 1494288500.418976, +0.501709, -0.199036, -0.957642, -46.325684, +106.811523, -95.336914
1494288500.419250, 1494288500.421674, +0.501709, -0.199036, -0.254517, -51.086426, +77.682495, -80.108643
1494288500.421949, 1494288500.424374, -0.041931, -0.126343, -0.279602, -51.086426, +77.682495, -80.108643
1494288500.424650, 1494288500.427078, -0.041931, -0.126343, -0.279602, -59.020996, +61.050415, -77.102661
1494288500.427353, 1494288500.429786, -0.041931, -0.126343, -0.279602, -59.020996, +61.050415, -77.102661
1494288500.430060, 1494288500.432482, -0.041931, -0.046509, -0.233459, -62.728882, +45.089722, -78.994751
1494288500.432756, 1494288500.435184, -0.437622, -0.046509, -0.233459, -62.728882, +45.089722, -78.994751
1494288500.435458, 1494288500.437876, -0.437622, -0.046509, -0.233459, -62.103271, +32.180786, -79.574585
1494288500.438146, 1494288500.440444, -0.437622, -0.046509, -0.233459, -62.103271, +32.180786, -79.574585
1494288500.440710, 1494288500.443012, +0.152527, +0.018494, -0.236938, -60.623169, +26.718140, -76.080322
1494288500.443280, 1494288500.445582, +0.152527, +0.018494, -0.236938, -60.623169, +26.718140, -76.080322
1494288500.445848, 1494288500.448181, +0.152527, +0.018494, -0.236938, -60.012817, +27.633667, -69.610596
1494288500.448448, 1494288500.450747, +0.152527, +0.018494, -0.236938, -60.012817, +27.633667, -69.610596
1494288500.451014, 1494288500.453313, +0.701294, +0.056946, -0.356140, -59.082031, +33.508301, -61.859131
1494288500.453580, 1494288500.455880, +0.701294, +0.056946, -0.356140, -59.082031, +33.508301, -61.859131
1494288500.456146, 1494288500.458487, +0.701294, +0.056946, -0.356140, -57.296753, +40.054321, -52.856445
1494288500.458752, 1494288500.461052, +0.701294, +0.056946, -0.356140, -57.296753, +40.054321, -52.856445
1494288500.461318, 1494288500.463614, +0.937317, -0.090637, -0.429016, -54.306030, +46.813965, -42.724609
1494288500.463880, 1494288500.466176, +0.937317, -0.090637, -0.429016, -54.306030, +46.813965, -42.724609
1494288500.466443, 1494288500.468895, +0.937317, -0.090637, -0.429016, -49.728394, +54.397583, -33.767700
1494288500.469172, 1494288500.471596, +0.937317, -0.090637, -0.429016, -49.728394, +54.397583, -33.767700
1494288500.471870, 1494288500.474292, +0.843750, -0.279419, -0.410706, -45.166016, +64.086914, -27.313232
1494288500.474567, 1494288500.476991, +0.843750, -0.279419, -0.410706, -45.166016, +64.086914, -27.313232
1494288500.477372, 1494288500.479703, +0.843750, -0.279419, -0.410706, -38.589478, +74.310303, -21.667480
1494288500.479969, 1494288500.482269, +0.843750, -0.279419, -0.410706, -38.589478, +74.310303, -21.667480
1494288500.482537, 1494288500.484835, +0.572937, -0.309814, -0.369873, -32.821655, +84.533691, -16.754150
1494288500.485101, 1494288500.487394, +0.572937, -0.309814, -0.369873, -32.821655, +84.533691, -16.754150
1494288500.487660, 1494288500.490081, +0.572937, -0.309814, -0.369873, -28.442383, +93.551636, -12.008667
1494288500.490357, 1494288500.492781, +0.572937, -0.309814, -0.335815, -28.442383, +93.551636, -12.008667
1494288500.493056, 1494288500.495480, +0.280151, -0.307251, -0.335815, -24.887085, +100.158691, -7.736206
1494288500.495749, 1494288500.498180, +0.280151, -0.307251, -0.335815, -24.887085, +100.158691, -7.736206
1494288500.498453, 1494288500.500871, +0.280151, -0.307251, -0.335815, -21.438599, +105.072021, -3.921509
1494288500.501143, 1494288500.503567, +0.280151, -0.321350, -0.360168, -21.438599, +105.072021, -3.921509
1494288500.503839, 1494288500.506265, +0.050537, -0.321350, -0.360168, -18.035889, +108.139038, -0.411987
1494288500.506538, 1494288500.508976, +0.050537, -0.321350, -0.360168, -18.035889, +108.139038, -0.411987
1494288500.509248, 1494288500.511673, +0.050537, -0.321350, -0.360168, -14.205933, +108.932495, +2.288818
1494288500.511946, 1494288500.514370, -0.055115, -0.301758, -0.379028, -14.205933, +108.932495, +2.288818
1494288500.514643, 1494288500.517136, -0.055115, -0.301758, -0.379028, -11.245728, +108.062744, +3.646851
1494288500.517409, 1494288500.519846, -0.055115, -0.301758, -0.379028, -11.245728, +108.062744, +7.553101
1494288500.520118, 1494288500.522534, -0.055115, -0.301758, -0.379028, -8.056641, +105.346680, +5.599976
1494288500.522804, 1494288500.525381, -0.071228, -0.249939, -0.395508, -8.056641, +105.346680, +8.010864
1494288500.525653, 1494288500.528573, -0.071228, -0.249939, -0.395508, -5.523682, +101.486206, +8.010864
1494288500.528838, 1494288500.531137, -0.071228, -0.249939, -0.395508, -5.523682, +97.076416, +10.452271
1494288500.531403, 1494288500.533705, -0.071228, -0.203064, -0.421509, -4.150391, +97.076416, +10.452271
1494288500.533971, 1494288500.536263, -0.018494, -0.206360, -0.421509, -4.150391, +91.476440, +12.680054
1494288500.536528, 1494288500.538894, -0.018494, -0.206360, -0.421509, -2.593994, +91.476440, +12.680054
1494288500.539166, 1494288500.541585, -0.018494, -0.206360, -0.421509, -2.593994, +85.571289, +14.587402
1494288500.541858, 1494288500.544280, +0.122131, -0.152893, -0.451904, +0.839233, +85.571289, +14.587402
1494288500.544552, 1494288500.546980, +0.101074, -0.152893, -0.451904, +4.745483, +80.490112, +16.723633
1494288500.547252, 1494288500.549679, +0.101074, -0.152893, -0.451904, +4.318237, +80.490112, +16.723633
1494288500.549951, 1494288500.552376, +0.101074, -0.152893, -0.451904, +8.163452, +74.722290, +19.989014
1494288500.552649, 1494288500.555072, +0.214233, -0.116272, -0.421509, +8.163452, +74.722290, +19.989014
1494288500.555345, 1494288500.557775, +0.214233, -0.116272, -0.421509, +12.252808, +69.412231, +23.101807
1494288500.558042, 1494288500.560340, +0.214233, -0.116272, -0.421509, +12.252808, +69.412231, +23.101807
1494288500.560608, 1494288500.562900, +0.214233, -0.116272, -0.421509, +14.236450, +63.980103, +24.795532
1494288500.563166, 1494288500.565463, +0.273926, -0.030762, -0.381226, +14.236450, +63.980103, +24.795532
1494288500.565729, 1494288500.568035, +0.273926, -0.030762, -0.381226, +16.342163, +59.692383, +26.657104
1494288500.568301, 1494288500.570594, +0.273926, -0.030762, -0.381226, +16.342163, +59.692383, +26.657104
1494288500.570861, 1494288500.573157, +0.273926, -0.030762, -0.381226, +16.342163, +56.442261, +28.625488
1494288500.573423, 1494288500.575724, +0.297913, +0.006592, -0.350281, +19.424438, +56.442261, +28.625488
1494288500.575990, 1494288500.578455, +0.297913, +0.006592, -0.350281, +19.424438, +51.910400, +31.341553
1494288500.578825, 1494288500.581130, +0.297913, +0.006592, -0.350281, +21.789551, +51.910400, +31.341553
1494288500.581401, 1494288500.583701, +0.297913, +0.006592, -0.350281, +25.695801, +43.991089, +35.629272
1494288500.583968, 1494288500.586266, +0.317139, -0.016296, -0.309448, +24.353027, +43.991089, +35.629272
1494288500.586533, 1494288500.588914, +0.317139, -0.016296, -0.309448, +24.353027, +35.369873, +41.671753
1494288500.589187, 1494288500.591614, +0.317139, -0.016296, -0.309448, +26.962280, +35.369873, +41.671753
1494288500.591888, 1494288500.594314, +0.317139, -0.016296, -0.271912, +30.868530, +26.977539, +47.012329
1494288500.594588, 1494288500.597014, +0.273010, +0.008423, -0.271912, +28.533936, +26.977539, +47.012329
1494288500.597292, 1494288500.599760, +0.273010, +0.008423, -0.271912, +29.403687, +18.371582, +52.322388
1494288500.600036, 1494288500.602461, +0.273010, +0.008423, -0.271912, +29.403687, +18.371582, +52.322388
1494288500.602735, 1494288500.605156, +0.226135, +0.032227, -0.211670, +29.556274, +11.581421, +56.518555
1494288500.605431, 1494288500.607866, +0.194275, +0.032227, -0.211670, +29.556274, +11.581421, +56.518555
1494288500.608141, 1494288500.610563, +0.194275, +0.032227, -0.211670, +28.533936, +7.156372, +60.455322
1494288500.610837, 1494288500.613261, +0.194275, +0.032227, -0.211670, +28.533936, +7.156372, +60.455322
1494288500.613533, 1494288500.615956, +0.182190, -0.013916, -0.181274, +28.900146, +4.150391, +64.804077
1494288500.616227, 1494288500.618659, +0.182190, -0.013916, -0.181274, +28.900146, +4.150391, +64.804077
1494288500.618931, 1494288500.621354, +0.182190, -0.013916, -0.181274, +29.953003, +1.724243, +69.869995
1494288500.621626, 1494288500.624045, +0.182190, -0.013916, -0.181274, +29.953003, +1.724243, +69.869995
1494288500.624319, 1494288500.626743, +0.119751, -0.064636, -0.193359, +32.424927, -0.869751, +75.134277
1494288500.627017, 1494288500.629415, +0.119751, -0.064636, -0.193359, +32.424927, -0.869751, +75.134277
1494288500.629680, 1494288500.631981, +0.119751, -0.064636, -0.193359, +34.545898, -3.707886, +79.681396
1494288500.632246, 1494288500.634540, +0.119751, -0.064636, -0.193359, +34.545898, -3.707886, +79.681396
1494288500.634804, 1494288500.637100, +0.049438, -0.065186, -0.181274, +36.529541, -6.652832, +83.892822
1494288500.637363, 1494288500.639840, +0.049438, -0.065186, -0.181274, +36.529541, -6.652832, +83.892822
1494288500.640112, 1494288500.642528, +0.049438, -0.065186, -0.181274, +37.979126, -9.399414, +88.226318
1494288500.642801, 1494288500.645356, +0.049438, -0.065186, -0.165527, +37.979126, -9.399414, +88.226318
1494288500.645630, 1494288500.648041, +0.045776, -0.025269, -0.165527, +39.382935, -11.535645, +92.514038
1494288500.648705, 1494288500.651134, +0.045776, -0.025269, -0.165527, +39.382935, -11.535645, +92.514038
1494288500.651410, 1494288500.653837, +0.045776, -0.025269, -0.165527, +40.039062, -12.741089, +95.642090
1494288500.654113, 1494288500.656537, +0.026917, -0.005127, -0.173035, +40.039062, -12.741089, +99.548340
1494288500.656813, 1494288500.659251, +0.026917, -0.005127, -0.173035, +41.107178, -12.908936, +98.556519
1494288500.659526, 1494288500.661950, +0.026917, -0.005127, -0.173035, +41.107178, -12.908936, +100.845337
1494288500.662226, 1494288500.664648, +0.026917, -0.005127, -0.173035, +42.526245, -13.244629, +100.845337
1494288500.664924, 1494288500.667346, +0.000549, -0.010071, -0.181274, +42.526245, -13.244629, +102.416992
1494288500.667621, 1494288500.670059, +0.000549, -0.010071, -0.181274, +44.677734, -14.739990, +102.416992
1494288500.670333, 1494288500.672755, +0.000549, -0.010071, -0.181274, +44.677734, -18.646240, +103.302002
1494288500.673031, 1494288500.675452, +0.000549, -0.010071, -0.259827, +47.180176, -17.654419, +103.302002
1494288500.675728, 1494288500.678140, -0.038269, +0.001831, -0.259827, +47.180176, -21.560669, +103.134155
1494288500.678408, 1494288500.680708, -0.038269, +0.001831, -0.259827, +49.423218, -21.179199, +103.134155
1494288500.680974, 1494288500.683277, -0.038269, +0.001831, -0.259827, +49.423218, -25.085449, +102.416992
1494288500.683651, 1494288500.685951, -0.038269, +0.001831, -0.324829, +51.406860, -25.009155, +102.416992
1494288500.686219, 1494288500.688577, -0.025085, +0.036987, -0.324829, +51.406860, -28.915405, +101.089478
1494288500.688845, 1494288500.691144, -0.025085, +0.036987, -0.324829, +56.167603, -28.762817, +101.089478
1494288500.691409, 1494288500.693708, -0.025085, +0.036987, -0.324829, +56.167603, -28.762817, +100.173950
1494288500.693975, 1494288500.696275, -0.025085, +0.064819, -0.300842, +61.752319, -31.936646, +100.173950
1494288500.696542, 1494288500.699021, -0.004578, +0.064819, -0.300842, +61.752319, -31.936646, +98.449707
1494288500.699288, 1494288500.701583, -0.004578, +0.064819, -0.300842, +66.589355, -34.240723, +98.449707
1494288500.701849, 1494288500.704143, -0.004578, +0.064819, -0.300842, +66.589355, -34.240723, +96.145630
1494288500.704410, 1494288500.706706, -0.051453, +0.157104, -0.252502, +70.144653, -38.970947, +96.145630
1494288500.706974, 1494288500.709542, -0.063904, +0.157104, -0.252502, +70.144653, -38.970947, +94.116211
1494288500.709820, 1494288500.712243, -0.063904, +0.157104, -0.252502, +73.776245, -47.119141, +94.116211
1494288500.712517, 1494288500.714937, -0.063904, +0.157104, -0.252502, +73.776245, -54.931641, +91.781616
1494288500.715212, 1494288500.717633, -0.132568, +0.288574, +0.039368, +74.645996, -55.953979, +91.781616
1494288500.717952, 1494288500.720381, -0.132568, +0.288574, +0.039368, +74.645996, -64.056396, +88.455200
1494288500.720657, 1494288500.723084, -0.132568, +0.288574, +0.039368, +69.519043, -64.056396, +88.455200
1494288500.723359, 1494288500.725778, -0.132568, +0.288574, +0.039368, +61.706543, -73.410034, +82.366943
1494288500.726052, 1494288500.728437, -0.245728, +0.471497, +0.151062, +60.012817, -73.410034, +82.366943
1494288500.728705, 1494288500.731010, -0.245728, +0.471497, +0.151062, +52.200317, -82.931519, +73.989868
1494288500.731278, 1494288500.733578, -0.245728, +0.471497, +0.151062, +53.070068, -82.931519, +73.989868
1494288500.733845, 1494288500.736142, -0.245728, +0.471497, +0.244812, +49.163818, -84.976196, +65.338135
1494288500.736406, 1494288500.738802, -0.307617, +0.518005, +0.246643, +47.592163, -84.976196, +65.338135
1494288500.739078, 1494288500.741504, -0.307617, +0.518005, +0.246643, +39.779663, -79.650879, +56.777954
1494288500.741778, 1494288500.744206, -0.307617, +0.518005, +0.246643, +39.688110, -79.650879, +56.777954
1494288500.744480, 1494288500.746904, -0.307617, +0.658630, +0.379761, +27.969360, -71.411133, +46.997070
1494288500.747178, 1494288500.749662, -0.356506, +0.691223, +0.379761, +28.564453, -71.411133, +46.997070
1494288500.749937, 1494288500.752361, -0.356506, +0.691223, +0.379761, +16.754150, -59.219360, +37.322998
1494288500.752634, 1494288500.755056, -0.356506, +0.691223, +0.379761, +16.754150, -59.219360, +37.322998
1494288500.755329, 1494288500.757763, -0.308716, +0.693054, +0.456848, +5.874634, -37.689209, +25.344849
1494288500.758035, 1494288500.760456, -0.308716, +0.693054, +0.456848, +5.874634, -37.689209, +25.344849
1494288500.760726, 1494288500.763152, -0.308716, +0.693054, +0.456848, -2.471924, -6.195068, +10.162354
1494288500.763419, 1494288500.766090, -0.308716, +0.693054, +0.456848, -2.471924, -6.195068, +10.162354
1494288500.766359, 1494288500.768947, -0.279602, +0.626038, +0.400635, -7.080078, +27.755737, -6.347656
1494288500.769218, 1494288500.771651, -0.279602, +0.626038, +0.400635, -7.080078, +27.755737, -6.347656
1494288500.771920, 1494288500.774343, -0.279602, +0.626038, +0.400635, -9.658813, +60.668945, -26.458740
1494288500.774616, 1494288500.777041, -0.279602, +0.626038, +0.182373, -9.658813, +60.668945, -26.458740
1494288500.777314, 1494288500.779669, -0.531006, +0.733154, +0.182373, -10.467529, +94.146729, -47.607422
1494288500.779938, 1494288500.782241, -0.531006, +0.733154, +0.182373, -10.467529, +94.146729, -47.607422
1494288500.782507, 1494288500.784809, -0.531006, +0.733154, +0.182373, -9.933472, +120.330811, -71.212769
1494288500.785073, 1494288500.787377, -0.531006, +0.826904, +0.190063, -9.933472, +120.330811, -71.212769
1494288500.787776, 1494288500.790179, -0.962036, +0.820862, +0.190063, -10.192871, +130.264282, -94.055176
1494288500.790453, 1494288500.792863, -0.962036, +0.820862, +0.190063, -10.192871, +130.264282, -94.055176
1494288500.793137, 1494288500.795546, -0.962036, +0.820862, +0.190063, -12.863159, +130.279541, -113.708496
1494288500.795821, 1494288500.798228, -1.039490, +0.577515, +0.713379, -12.863159, +130.279541, -113.708496
1494288500.798498, 1494288500.800794, -1.039490, +0.577515, +0.713379, -15.823364, +126.983643, -124.740601
1494288500.801061, 1494288500.803359, -1.039490, +0.577515, +0.713379, -15.823364, +126.983643, -124.740601
1494288500.803625, 1494288500.805920, -1.039490, +0.577515, +0.713379, -7.980347, +124.969482, -136.550903
1494288500.806183, 1494288500.808572, -3.715942, +0.733704, +1.432434, -7.980347, +124.969482, -136.550903
1494288500.808835, 1494288500.811135, -3.715942, +0.733704, +1.432434, -26.840210, +122.314453, -139.495850
1494288500.811400, 1494288500.813696, -3.715942, +0.733704, +1.432434, -26.840210, +122.314453, -139.495850
1494288500.813962, 1494288500.816263, -3.715942, +0.733704, +1.432434, -110.092163, +168.014526, -137.329102
1494288500.816528, 1494288500.818873, -5.998535, +2.602661, +4.558777, -110.092163, +168.014526, -137.329102
1494288500.819135, 1494288500.821434, -5.998535, +2.602661, +4.558777, -255.355835, +313.140869, -210.464478
1494288500.821698, 1494288500.823993, -5.998535, +2.602661, +4.558777, -255.355835, +313.140869, -210.464478
1494288500.824256, 1494288500.826555, -5.998535, +2.602661, +4.558777, -250.411987, +190.063477, -310.592651
1494288500.826818, 1494288500.829306, -4.314148, +5.998535, +0.691406, -250.411987, +190.063477, -310.592651
1494288500.829580, 1494288500.832000, -4.314148, +5.998535, +0.691406, +10.452271, +6.027222, -282.592773
1494288500.832271, 1494288500.834695, -4.314148, +5.998535, +0.691406, +10.452271, +6.027222, -282.592773
1494288500.834965, 1494288500.837387, -4.314148, +5.998535, +0.691406, +125.930786, +128.067017, -375.595093
1494288500.837661, 1494288500.840087, +5.238647, +5.985718, -4.753418, +125.930786, +128.067017, -375.595093
1494288500.840358, 1494288500.842779, +5.238647, +5.985718, -4.753418, -4.943848, +370.605469, -397.888184
1494288500.843047, 1494288500.845472, +5.238647, +5.985718, -4.753418, -4.943848, +370.605469, -397.888184
1494288500.845738, 1494288500.848175, +5.238647, +5.985718, -3.131653, -146.881104, -36.285400, -226.287842
1494288500.848446, 1494288500.850871, +5.998535, +0.938599, -3.131653, -146.881104, -36.285400, -226.287842
1494288500.851144, 1494288500.853560, +5.998535, +0.938599, -3.131653, -188.079834, -435.211182, -29.586792
1494288500.853833, 1494288500.856257, +5.998535, +0.938599, -3.131653, -188.079834, -435.211182, -29.586792
1494288500.856529, 1494288500.858960, +4.826660, +0.513062, -2.719482, -47.317505, -327.255249, +33.889771
1494288500.859234, 1494288500.861658, +4.813843, +0.513062, -2.719482, -47.317505, -327.255249, -79.391479
1494288500.861930, 1494288500.864352, +4.813843, +0.513062, -2.719482, +27.297974, +126.647949, -79.025269
1494288500.864626, 1494288500.867050, +4.813843, +0.513062, -2.719482, +27.297974, +126.647949, -114.639282
1494288500.867321, 1494288500.869651, -1.335022, +2.389160, -0.290039, -126.739502, +342.391968, -114.639282
1494288500.869918, 1494288500.872216, -1.335022, +2.389160, -0.290039, -126.739502, +342.391968, -5.264282
1494288500.872478, 1494288500.874777, -1.335022, +2.389160, -0.290039, -9.429932, +114.837646, -5.676270
1494288500.875037, 1494288500.877335, -1.335022, +2.389160, -0.290039, -9.429932, +114.837646, +17.761230
1494288500.877597, 1494288500.879905, -5.374146, +4.746826, +3.283081, -137.771606, -34.301758, +17.288208
1494288500.880167, 1494288500.882460, -5.374146, +4.746826, +3.283081, -137.771606, -34.301758, +17.288208
1494288500.882724, 1494288500.885254, -5.374146, +4.746826, +3.283081, -112.167358, +23.010254, +8.880615
1494288500.885519, 1494288500.887894, -5.374146, +4.746826, +3.283081, -112.167358, +23.010254, +8.880615
1494288500.888290, 1494288500.890727, +1.979187, +4.857422, +0.759888, -59.265137, -29.617310, -43.579102
1494288500.891002, 1494288500.893429, +1.979187, +4.857422, +0.759888, -59.265137, -29.617310, -152.008057
1494288500.893703, 1494288500.896130, +1.979187, +4.857422, +0.759888, -51.010132, +32.409668, -152.008057
1494288500.896403, 1494288500.898833, +1.979187, +4.857422, -0.322449, -51.010132, +32.409668, -135.528564
1494288500.899107, 1494288500.901535, -0.165894, +0.120850, -0.322449, -66.436768, +102.996826, -135.528564
1494288500.901813, 1494288500.904244, -0.165894, +0.120850, -0.322449, -66.436768, +102.996826, -106.033325
1494288500.904522, 1494288500.906950, -0.165894, +0.120850, -0.322449, -49.316406, +102.981567, -106.033325
1494288500.907224, 1494288500.909655, -0.165894, -1.224976, -0.749451, -49.316406, +65.734863, -85.037231
1494288500.909928, 1494288500.912349, -1.145325, -1.224976, -0.749451, -19.729614, +65.734863, -85.037231
1494288500.912621, 1494288500.915046, -1.145325, -1.224976, -0.749451, -11.917114, +42.785645, -67.611694
