timestamp_before, timestamp_after, accel_x, accel_y, accel_z, gyro_x, gyro_y, gyro_z
1491873282.378783, 1491873282.381168, -0.123596, +1.265442, -0.182922, -1.953125, -0.030518, +0.869751
1491873282.381517, 1491873282.383817, -0.123596, +1.265442, -0.182922, -1.953125, -0.030518, +188.369751
1491873282.384083, 1491873282.386377, -0.097961, +0.993347, -0.135681, -24.017334, -481.521606, +188.842773
1491873282.386645, 1491873282.389041, -0.097961, +0.993347, -0.135681, -24.017334, -481.521606, -186.157227
1491873282.389308, 1491873282.391686, -0.097961, +0.993347, -0.135681, +16.220093, +480.529785, -186.386108
1491873282.391953, 1491873282.394250, -0.097961, +0.993347, -0.135681, +16.220093, +480.529785, -186.386108
1491873282.394519, 1491873282.396815, -0.096130, +1.025024, -0.147400, -2.563477, -0.213623, +1.037598
1491873282.397076, 1491873282.399401, -0.096130, +1.025024, -0.147400, -2.563477, -0.213623, +1.037598
1491873282.399659, 1491873282.402015, -0.096130, +1.025024, -0.147400, -2.624512, -0.427246, +0.823975
1491873282.402274, 1491873282.404572, -0.096130, +1.025024, -0.147400, -2.624512, -0.427246, +0.823975
1491873282.404829, 1491873282.407124, -0.090454, +1.023010, -0.147583, -2.639771, +0.000000, +1.083374
1491873282.407381, 1491873282.409682, -0.090454, +1.023010, -0.147583, -2.639771, +0.000000, +1.083374
1491873282.409939, 1491873282.412377, -0.090454, +1.023010, -0.147583, -2.288818, +0.350952, +1.068115
1491873282.412637, 1491873282.414928, -0.090454, +1.023010, -0.147583, -2.288818, +0.350952, +1.068115
1491873282.415185, 1491873282.417485, -0.093201, +1.028137, -0.144836, -1.907349, -0.076294, +1.296997
1491873282.417743, 1491873282.420038, -0.093201, +1.028137, -0.144836, -1.907349, -0.076294, +1.296997
1491873282.420466, 1491873282.422763, -0.093201, +1.028137, -0.144836, -2.227783, -0.305176, +1.235962
1491873282.423019, 1491873282.425321, -0.093201, +1.028137, -0.144836, -2.227783, -0.305176, +1.235962
1491873282.425580, 1491873282.427874, -0.096497, +1.027222, -0.136780, -2.380371, -0.549316, +1.296997
1491873282.428132, 1491873282.430487, -0.096497, +1.027222, -0.136780, -2.380371, -0.549316, +1.296997
1491873282.430744, 1491873282.433038, -0.096497, +1.027222, -0.136780, -2.029419, -0.442505, +1.373291
1491873282.433297, 1491873282.435593, -0.096497, +1.027222, -0.136780, -2.029419, -0.442505, +1.373291
1491873282.435851, 1491873282.438147, -0.097595, +1.023376, -0.137878, -2.136230, -0.411987, +1.693726
1491873282.438404, 1491873282.440708, -0.097595, +1.023376, -0.137878, -2.136230, -0.411987, +1.693726
1491873282.440965, 1491873282.443265, -0.097595, +1.023376, -0.137878, -1.770020, -0.244141, +1.251221
1491873282.443524, 1491873282.445825, -0.097595, +1.023376, -0.184753, -1.770020, -0.244141, +1.251221
1491873282.446082, 1491873282.448376, -0.095581, +1.022095, -0.141357, -2.304077, -0.259399, +1.510620
1491873282.448633, 1491873282.450943, -0.095581, +1.022095, -0.141357, -2.304077, -0.259399, +1.510620
1491873282.451201, 1491873282.453500, -0.095581, +1.022095, -0.141357, -1.907349, +0.183105, +1.495361
1491873282.453757, 1491873282.456140, -0.095581, +1.022095, -0.142273, -1.907349, +0.183105, +1.495361
1491873282.456398, 1491873282.458704, -0.092468, +1.022278, -0.142273, -2.136230, +0.167847, +1.312256
1491873282.458962, 1491873282.461456, -0.092468, +1.022278, -0.142273, -2.136230, +0.167847, +1.312256
1491873282.461719, 1491873282.464132, -0.092468, +1.022278, -0.142273, -2.410889, +0.137329, +1.449585
1491873282.464395, 1491873282.466804, -0.092468, +1.025391, -0.146301, -2.410889, +0.137329, +1.449585
1491873282.467069, 1491873282.469477, -0.091370, +1.025391, -0.146301, -2.471924, +0.122070, +1.525879
1491873282.469742, 1491873282.472229, -0.091370, +1.025391, -0.146301, -2.471924, +0.122070, +1.525879
1491873282.472494, 1491873282.474878, -0.091370, +1.025391, -0.146301, -1.907349, +0.183105, +0.961304
1491873282.475141, 1491873282.477636, -0.092102, +1.026306, -0.140625, -1.907349, +0.183105, +0.961304
1491873282.477899, 1491873282.480294, -0.092102, +1.026306, -0.140625, -2.212524, +0.305176, +0.732422
1491873282.480820, 1491873282.483236, -0.092102, +1.026306, -0.140625, -2.212524, +0.305176, +0.732422
1491873282.483502, 1491873282.485915, -0.092102, +1.026306, -0.140625, -2.090454, +0.183105, +0.762939
1491873282.486181, 1491873282.488590, -0.093567, +1.027771, -0.143555, -2.090454, +0.183105, +0.762939
1491873282.488855, 1491873282.491410, -0.093567, +1.027771, -0.143555, -2.029419, +0.152588, +1.403809
1491873282.491675, 1491873282.494089, -0.093567, +1.027771, -0.143555, -2.029419, +0.152588, +1.403809
1491873282.494355, 1491873282.496761, -0.093567, +1.027771, -0.146301, -2.059937, +0.106812, +1.403809
1491873282.497025, 1491873282.499432, -0.087341, +1.025024, -0.146301, -2.059937, +0.106812, +1.403809
1491873282.499698, 1491873282.502055, -0.087341, +1.025024, -0.146301, -2.197266, -0.045776, +1.220703
1491873282.502313, 1491873282.504609, -0.087341, +1.025024, -0.146301, -2.197266, -0.045776, +1.220703
1491873282.504866, 1491873282.507162, -0.087341, +1.025024, -0.139526, -2.288818, -0.198364, +1.144409
1491873282.507419, 1491873282.509719, -0.093933, +1.027222, -0.139526, -2.288818, -0.198364, +1.144409
1491873282.509975, 1491873282.512279, -0.093933, +1.027222, -0.139526, -2.014160, +0.061035, +1.129150
1491873282.512536, 1491873282.514832, -0.093933, +1.027222, -0.139526, -2.014160, +0.061035, +1.129150
1491873282.515090, 1491873282.517386, -0.093933, +1.027222, -0.148132, -1.815796, -0.152588, +1.266479
1491873282.517643, 1491873282.519942, -0.090271, +1.022644, -0.148132, -1.815796, -0.152588, +1.266479
1491873282.520198, 1491873282.522502, -0.090271, +1.022644, -0.148132, -2.532959, -0.152588, +0.946045
1491873282.522761, 1491873282.525056, -0.090271, +1.022644, -0.148132, -2.532959, -0.152588, +0.946045
1491873282.525313, 1491873282.527613, -0.090271, +1.025940, -0.143372, -2.380371, -0.122070, +1.235962
1491873282.527872, 1491873282.530273, -0.091553, +1.025940, -0.143372, -2.380371, -0.122070, +1.235962
1491873282.530551, 1491873282.532864, -0.091553, +1.025940, -0.143372, -2.120972, +0.122070, +0.595093
1491873282.533126, 1491873282.535423, -0.091553, +1.025940, -0.143372, -2.120972, +0.122070, +0.595093
1491873282.535683, 1491873282.537985, -0.091553, +1.029236, -0.137512, -2.273560, +0.030518, +0.534058
1491873282.538242, 1491873282.540717, -0.088989, +1.029236, -0.137512, -2.273560, +0.030518, +0.534058
1491873282.540991, 1491873282.544565, -0.088989, +1.029236, -0.137512, -2.807617, -0.183105, +0.854492
1491873282.544855, 1491873282.547280, -0.088989, +1.029236, -0.184387, -2.807617, -0.183105, +1.007080
1491873282.547544, 1491873282.549950, -0.089355, +1.023926, -0.144104, -2.548218, +0.274658, +1.007080
1491873282.550218, 1491873282.552515, -0.089355, +1.023926, -0.144104, -2.548218, +0.274658, +0.640869
1491873282.552776, 1491873282.555075, -0.089355, +1.023926, -0.144104, -2.426147, +0.411987, +0.640869
1491873282.555333, 1491873282.557810, -0.089355, +1.023926, -0.145569, -2.426147, +0.411987, +0.534058
1491873282.558068, 1491873282.560500, -0.094849, +1.030334, -0.145569, -2.578735, +0.045776, +0.534058
1491873282.560766, 1491873282.563158, -0.094849, +1.030334, -0.145569, -2.578735, +0.045776, +0.717163
1491873282.563423, 1491873282.565901, -0.094849, +1.030334, -0.145569, -2.670288, +0.030518, +0.717163
1491873282.566178, 1491873282.568578, -0.094849, +1.028687, -0.143005, -2.670288, -0.137329, +1.129150
1491873282.568843, 1491873282.571930, -0.102539, +1.028687, -0.143005, -2.075195, -0.137329, +1.129150
1491873282.572190, 1491873282.574491, -0.102539, +1.028687, -0.143005, -1.968384, -0.076294, +0.869751
1491873282.574750, 1491873282.577048, -0.102539, +1.028687, -0.143005, -1.968384, -0.076294, +0.869751
1491873282.577307, 1491873282.579609, -0.102539, +1.028320, -0.137512, -1.983643, -0.076294, +1.174927
1491873282.579866, 1491873282.582353, -0.102539, +1.028320, -0.137512, -1.983643, -0.076294, +1.174927
1491873282.582619, 1491873282.585053, -0.102539, +1.028320, -0.137512, -2.273560, -0.289917, +1.129150
1491873282.585319, 1491873282.587743, -0.102539, +1.028320, -0.137512, -2.273560, -0.289917, +1.129150
1491873282.588155, 1491873282.590591, -0.100342, +1.023376, -0.136597, -2.349854, -0.579834, +0.991821
1491873282.590856, 1491873282.593285, -0.100342, +1.023376, -0.136597, -2.349854, -0.579834, +0.991821
1491873282.593552, 1491873282.595971, -0.100342, +1.023376, -0.136597, -2.166748, -0.320435, +0.946045
1491873282.596237, 1491873282.598660, -0.100342, +1.023376, -0.141357, -2.166748, -0.320435, +0.946045
1491873282.598926, 1491873282.601302, -0.098328, +1.027771, -0.141357, -2.380371, -0.564575, +1.159668
1491873282.601559, 1491873282.603859, -0.098328, +1.027771, -0.141357, -2.380371, -0.564575, +1.159668
1491873282.604115, 1491873282.606420, -0.098328, +1.027771, -0.141357, -2.502441, -0.854492, +0.854492
1491873282.606680, 1491873282.608979, -0.098328, +1.023376, -0.147034, -2.502441, -0.854492, +0.854492
1491873282.609236, 1491873282.611546, -0.083862, +1.023376, -0.147034, -2.761841, -0.671387, +0.549316
1491873282.611804, 1491873282.614110, -0.083862, +1.023376, -0.147034, -2.761841, -0.671387, +0.549316
1491873282.614368, 1491873282.616667, -0.083862, +1.023376, -0.147034, -2.471924, -0.549316, +0.350952
1491873282.616925, 1491873282.619220, -0.130737, +1.027222, -0.145020, -2.471924, -0.549316, +0.350952
1491873282.619477, 1491873282.621943, -0.096313, +1.027222, -0.145020, -2.838135, -0.320435, +0.717163
1491873282.622202, 1491873282.624501, -0.096313, +1.027222, -0.145020, -2.838135, -0.320435, +0.717163
1491873282.624758, 1491873282.627068, -0.096313, +1.027222, -0.145020, -2.822876, -0.427246, +0.488281
1491873282.627325, 1491873282.629621, -0.094666, +1.025574, -0.132568, -2.822876, -0.427246, +0.488281
1491873282.629880, 1491873282.632420, -0.094666, +1.025574, -0.132568, -2.441406, -0.350952, +0.488281
1491873282.632683, 1491873282.635094, -0.094666, +1.025574, -0.132568, -2.441406, -0.350952, +0.488281
1491873282.635357, 1491873282.637765, -0.094666, +1.025574, -0.132568, -2.914429, -0.320435, +0.396729
1491873282.638028, 1491873282.640490, -0.092651, +1.027771, -0.140076, -2.914429, -0.320435, +0.396729
1491873282.640754, 1491873282.643166, -0.092651, +1.027771, -0.140076, -2.746582, +0.366211, +0.320435
1491873282.643429, 1491873282.645840, -0.092651, +1.027771, -0.140076, -2.746582, +0.366211, +0.320435
1491873282.646106, 1491873282.648518, -0.092651, +1.027771, -0.140076, -2.822876, +0.000000, +0.244141
1491873282.648783, 1491873282.651152, -0.098145, +1.022644, -0.142090, -2.822876, +0.000000, +0.244141
1491873282.651410, 1491873282.653705, -0.098145, +1.022644, -0.142090, -2.990723, -0.289917, +0.396729
1491873282.653964, 1491873282.656280, -0.098145, +1.022644, -0.142090, -2.990723, -0.289917, +0.396729
1491873282.656539, 1491873282.658839, -0.098145, +1.022644, -0.142090, -2.624512, -0.122070, +0.366211
1491873282.659097, 1491873282.661520, -0.097961, +1.027405, -0.146667, -2.624512, -0.122070, +0.366211
1491873282.661785, 1491873282.664213, -0.097961, +1.027405, -0.146667, -3.433228, -0.228882, +0.106812
1491873282.664478, 1491873282.666902, -0.097961, +1.027405, -0.146667, -3.433228, -0.228882, +0.106812
1491873282.667169, 1491873282.669594, -0.097961, +1.074280, -0.149597, -4.074097, -0.350952, -0.244141
1491873282.669858, 1491873282.672297, -0.090454, +1.033447, -0.149597, -4.074097, -0.350952, -0.244141
1491873282.672563, 1491873282.674987, -0.090454, +1.033447, -0.149597, -4.226685, -0.320435, -0.411987
1491873282.675252, 1491873282.677680, -0.090454, +1.033447, -0.149597, -4.226685, -0.320435, -0.411987
1491873282.677945, 1491873282.680377, -0.137329, +1.030884, -0.138977, -3.906250, -0.381470, -0.305176
1491873282.680641, 1491873282.683065, -0.103821, +1.030884, -0.138977, -3.906250, -0.381470, -0.305176
1491873282.683333, 1491873282.685762, -0.103821, +1.030884, -0.138977, -3.723145, -0.503540, -0.503540
1491873282.686076, 1491873282.688540, -0.103821, +1.030884, -0.138977, -3.723145, -0.503540, -0.503540
1491873282.688807, 1491873282.691276, -0.107300, +1.032715, -0.122131, -4.089355, -0.885010, -0.503540
1491873282.691542, 1491873282.693959, -0.107300, +1.032715, -0.122131, -4.089355, -0.885010, -0.503540
1491873282.694335, 1491873282.696759, -0.107300, +1.032715, -0.122131, -4.180908, -1.296997, -0.274658
1491873282.697026, 1491873282.699447, -0.107300, +1.032715, -0.122131, -4.180908, -1.296997, -0.274658
1491873282.699712, 1491873282.702041, -0.100525, +1.019348, -0.139709, -3.997803, -1.251221, -0.534058
1491873282.702299, 1491873282.704600, -0.100525, +1.019348, -0.139709, -3.997803, -1.251221, -0.534058
1491873282.704857, 1491873282.707155, -0.100525, +1.019348, -0.139709, -4.013062, -0.595093, -0.503540
1491873282.707413, 1491873282.709707, -0.100525, +1.019348, -0.139709, -4.013062, -0.595093, -0.503540
1491873282.709965, 1491873282.712393, -0.090820, +1.018250, -0.138611, -4.150391, -0.976562, -0.747681
1491873282.712660, 1491873282.715083, -0.090820, +1.018250, -0.138611, -4.150391, -0.976562, -0.747681
1491873282.715348, 1491873282.717769, -0.090820, +1.018250, -0.138611, -3.997803, -1.083374, -0.946045
1491873282.718035, 1491873282.720480, -0.090820, +1.018250, -0.136230, -3.997803, -1.083374, -0.946045
1491873282.720738, 1491873282.723035, -0.111145, +1.029236, -0.136230, -4.333496, -1.098633, -0.839233
1491873282.723292, 1491873282.725593, -0.111145, +1.029236, -0.136230, -4.333496, -1.098633, -0.839233
1491873282.725851, 1491873282.728152, -0.111145, +1.029236, -0.136230, -4.028320, -1.495361, -0.732422
1491873282.728408, 1491873282.730802, -0.111145, +1.027405, -0.122681, -4.028320, -1.495361, -0.732422
1491873282.731060, 1491873282.733361, -0.086060, +1.027405, -0.122681, -4.119873, -1.052856, -0.991821
1491873282.733620, 1491873282.735915, -0.086060, +1.027405, -0.122681, -4.119873, -1.052856, -0.991821
1491873282.736174, 1491873282.738474, -0.086060, +1.027405, -0.122681, -4.516602, -1.083374, -1.434326
1491873282.738732, 1491873282.741216, -0.132935, +1.032349, -0.124695, -4.516602, -1.083374, -1.434326
1491873282.741480, 1491873282.743882, -0.100708, +1.032349, -0.124695, -4.669189, -1.068115, -1.403809
1491873282.744145, 1491873282.746548, -0.100708, +1.032349, -0.124695, -4.669189, -1.068115, -1.403809
1491873282.746811, 1491873282.749217, -0.100708, +1.032349, -0.124695, -4.531860, -1.327515, -1.358032
1491873282.749480, 1491873282.751817, -0.105103, +1.033264, -0.124878, -4.531860, -1.327515, -1.358032
1491873282.752075, 1491873282.754372, -0.105103, +1.033264, -0.124878, -3.967285, -1.739502, -1.312256
1491873282.754627, 1491873282.757028, -0.105103, +1.033264, -0.124878, -3.967285, -1.739502, -1.312256
1491873282.757287, 1491873282.759585, -0.105103, +1.033264, -0.124878, -3.936768, -1.449585, -1.495361
1491873282.759842, 1491873282.762187, -0.092285, +1.023193, -0.135315, -3.936768, -1.449585, -1.495361
1491873282.762443, 1491873282.764733, -0.092285, +1.023193, -0.135315, -4.241943, -1.205444, -1.953125
1491873282.764990, 1491873282.767284, -0.092285, +1.023193, -0.135315, -4.241943, -1.205444, -1.953125
1491873282.767540, 1491873282.769841, -0.092285, +1.023193, -0.135315, -4.074097, -1.235962, -2.059937
1491873282.770123, 1491873282.772553, -0.108765, +1.026855, -0.131653, -4.074097, -1.235962, -2.059937
1491873282.772817, 1491873282.775239, -0.108765, +1.026855, -0.131653, -4.379272, -1.281738, -1.831055
1491873282.775502, 1491873282.777924, -0.108765, +1.026855, -0.131653, -4.379272, -1.281738, -1.831055
1491873282.778187, 1491873282.780617, -0.108765, +1.026855, -0.131653, -4.104614, -1.358032, -1.968384
1491873282.780881, 1491873282.783307, -0.106567, +1.018982, -0.135864, -4.104614, -1.358032, -1.968384
1491873282.783572, 1491873282.785996, -0.106567, +1.018982, -0.135864, -4.714966, -1.007080, -2.212524
1491873282.786259, 1491873282.788680, -0.106567, +1.018982, -0.135864, -4.714966, -1.007080, -2.212524
1491873282.788945, 1491873282.791380, -0.106567, +1.018982, -0.144287, -4.486084, -0.595093, -1.983643
1491873282.791645, 1491873282.794070, -0.097778, +1.016235, -0.144287, -4.486084, -0.595093, -1.983643
1491873282.794335, 1491873282.796761, -0.097778, +1.016235, -0.144287, -4.272461, -1.022339, -1.922607
1491873282.797026, 1491873282.799452, -0.097778, +1.016235, -0.144287, -4.272461, -1.022339, -1.922607
1491873282.799821, 1491873282.802192, -0.108765, +1.026306, -0.128357, -4.333496, -0.961304, -2.288818
1491873282.802450, 1491873282.804747, -0.108765, +1.026306, -0.128357, -4.333496, -0.961304, -2.288818
1491873282.805004, 1491873282.807300, -0.108765, +1.026306, -0.128357, -4.577637, -1.113892, -2.273560
1491873282.807559, 1491873282.809856, -0.108765, +1.026306, -0.128357, -4.577637, -1.113892, -2.273560
1491873282.810111, 1491873282.812536, -0.120117, +1.026123, -0.116821, -4.760742, -0.915527, -1.983643
1491873282.812801, 1491873282.815227, -0.120117, +1.026123, -0.116821, -4.760742, -0.915527, -1.983643
1491873282.815493, 1491873282.817915, -0.120117, +1.026123, -0.116821, -4.669189, -1.373291, -1.922607
1491873282.818178, 1491873282.820612, -0.120117, +1.026123, -0.116821, -4.669189, -1.373291, -1.495361
1491873282.820877, 1491873282.823304, -0.110962, +1.025208, -0.114990, -4.501343, -1.571655, -1.495361
1491873282.823569, 1491873282.825994, -0.110962, +1.025208, -0.114990, -4.501343, -1.571655, -1.464844
1491873282.826261, 1491873282.828681, -0.110962, +1.025208, -0.114990, -4.470825, -1.312256, -1.464844
1491873282.828946, 1491873282.831382, -0.110962, +1.025208, -0.114990, -4.470825, -1.312256, -1.419067
1491873282.831645, 1491873282.834070, -0.119202, +1.022461, -0.106384, -4.409790, -1.464844, -1.419067
1491873282.834336, 1491873282.836763, -0.119202, +1.022461, -0.106384, -4.409790, -1.464844, -1.022339
1491873282.837027, 1491873282.839449, -0.119202, +1.022461, -0.106384, -3.631592, -1.525879, -1.022339
1491873282.839712, 1491873282.842039, -0.119202, +1.022461, -0.115356, -3.631592, -1.525879, -0.839233
1491873282.842298, 1491873282.844589, -0.124512, +1.020996, -0.115356, -3.173828, -1.449585, -0.839233
1491873282.844847, 1491873282.847145, -0.124512, +1.020996, -0.115356, -3.173828, -1.449585, -0.595093
1491873282.847403, 1491873282.849702, -0.124512, +1.020996, -0.115356, -2.990723, -1.358032, -0.595093
1491873282.849960, 1491873282.852348, -0.124512, +1.020996, -0.114990, -2.990723, -1.358032, -0.320435
1491873282.852610, 1491873282.854996, -0.119019, +1.017883, -0.114990, -2.807617, -1.083374, -0.320435
1491873282.855258, 1491873282.857735, -0.119019, +1.017883, -0.114990, -2.807617, -1.083374, -0.274658
1491873282.858002, 1491873282.860497, -0.119019, +1.017883, -0.114990, -2.777100, -1.037598, -0.274658
1491873282.860761, 1491873282.863186, -0.114075, +1.020813, -0.110596, -2.777100, -1.281738, -0.106812
1491873282.863454, 1491873282.865878, -0.114075, +1.020813, -0.110596, -2.487183, -1.281738, -0.106812
1491873282.866143, 1491873282.868566, -0.114075, +1.020813, -0.110596, -2.487183, -1.052856, -0.518799
1491873282.868830, 1491873282.871309, -0.114075, +1.020813, -0.110596, -2.822876, -1.052856, -0.518799
1491873282.871574, 1491873282.874004, -0.104187, +1.025391, -0.128906, -2.822876, -0.656128, -0.732422
1491873282.874268, 1491873282.876689, -0.104187, +1.025391, -0.128906, -2.944946, -0.656128, -0.732422
1491873282.876956, 1491873282.879382, -0.104187, +1.025391, -0.128906, -3.265381, -0.396729, -0.808716
1491873282.879648, 1491873282.882123, -0.104187, +1.025391, -0.128906, -3.265381, -0.396729, -0.808716
1491873282.882388, 1491873282.884815, -0.071960, +1.036011, -0.132751, -3.158569, -0.213623, -1.296997
1491873282.885080, 1491873282.887503, -0.071960, +1.036011, -0.132751, -3.158569, -0.213623, -1.296997
1491873282.887768, 1491873282.890201, -0.071960, +1.036011, -0.132751, -3.112793, -0.106812, -2.532959
1491873282.890460, 1491873282.892755, -0.071960, +1.036011, -0.162415, -3.112793, -0.106812, -2.532959
1491873282.893014, 1491873282.895312, -0.059143, +1.041504, -0.162415, -3.295898, +0.823975, -2.944946
1491873282.895569, 1491873282.897861, -0.059143, +1.041504, -0.162415, -3.295898, +0.823975, -2.944946
1491873282.898119, 1491873282.900488, -0.059143, +1.041504, -0.162415, -3.311157, +1.327515, -2.746582
1491873282.900752, 1491873282.903179, -0.059143, +1.041504, -0.145203, -3.311157, +1.327515, -2.746582
1491873282.903547, 1491873282.905976, -0.130920, +1.042053, -0.145203, -3.646851, +1.052856, -3.005981
1491873282.906240, 1491873282.908664, -0.130920, +1.042053, -0.145203, -3.646851, +1.052856, -3.005981
1491873282.908927, 1491873282.911364, -0.130920, +1.042053, -0.145203, -3.417969, -0.213623, -3.311157
1491873282.911627, 1491873282.914051, -0.127991, +1.035461, -0.114990, -3.417969, -0.213623, -3.311157
1491873282.914316, 1491873282.916738, -0.127991, +1.035461, -0.114990, -3.402710, -0.564575, -3.173828
1491873282.917003, 1491873282.919428, -0.127991, +1.035461, -0.114990, -3.402710, -0.564575, -3.173828
1491873282.919694, 1491873282.922125, -0.127991, +1.035461, -0.114990, -3.585815, -0.747681, -2.960205
1491873282.922389, 1491873282.924811, -0.125427, +1.022461, -0.117920, -3.585815, -0.747681, -2.960205
1491873282.925076, 1491873282.927493, -0.125427, +1.022461, -0.117920, -3.768921, -0.762939, -2.456665
1491873282.927758, 1491873282.930187, -0.125427, +1.022461, -0.117920, -3.768921, -0.762939, -2.456665
1491873282.930450, 1491873282.932871, -0.125427, +1.022461, -0.117920, -3.158569, -0.869751, -2.532959
1491873282.933136, 1491873282.935565, -0.128174, +1.023926, -0.113525, -3.158569, -0.869751, -2.532959
1491873282.935829, 1491873282.938250, -0.128174, +1.023926, -0.113525, -3.326416, -0.808716, -2.532959
1491873282.938516, 1491873282.940909, -0.128174, +1.023926, -0.113525, -3.326416, -0.808716, -2.532959
1491873282.941166, 1491873282.943463, -0.128174, +1.023926, -0.102905, -3.631592, -1.159668, -2.395630
1491873282.943719, 1491873282.946015, -0.128906, +1.027588, -0.102905, -3.631592, -1.159668, -2.395630
1491873282.946271, 1491873282.948565, -0.128906, +1.027588, -0.102905, -3.677368, -1.495361, -2.288818
1491873282.948822, 1491873282.951170, -0.128906, +1.027588, -0.102905, -3.677368, -1.495361, -2.288818
1491873282.951435, 1491873282.953829, -0.128906, +1.027588, -0.116455, -3.189087, -1.922607, -2.410889
1491873282.954090, 1491873282.956479, -0.108032, +1.023010, -0.116455, -3.189087, -1.922607, -2.410889
1491873282.956779, 1491873282.959207, -0.108032, +1.023010, -0.116455, -3.067017, -1.220703, -2.395630
1491873282.959471, 1491873282.961906, -0.108032, +1.023010, -0.116455, -3.067017, -1.220703, -2.395630
1491873282.962170, 1491873282.964586, -0.106934, +1.027588, -0.122681, -3.234863, -0.656128, -2.944946
1491873282.964851, 1491873282.967273, -0.106934, +1.027588, -0.122681, -3.234863, -0.656128, -2.944946
1491873282.967539, 1491873282.969963, -0.106934, +1.027588, -0.122681, -3.372192, -0.442505, -3.829956
1491873282.970227, 1491873282.972649, -0.106934, +1.027588, -0.122681, -3.372192, -0.442505, -3.829956
1491873282.972915, 1491873282.975332, -0.100708, +1.028870, -0.111511, -2.883911, -0.350952, -3.967285
1491873282.975597, 1491873282.978022, -0.100708, +1.028870, -0.111511, -2.883911, -0.350952, -3.967285
1491873282.978286, 1491873282.980722, -0.100708, +1.028870, -0.111511, -2.975464, +0.549316, -4.699707
1491873282.980988, 1491873282.983409, -0.100708, +1.028870, -0.111511, -2.975464, +0.549316, -4.699707
1491873282.983676, 1491873282.986096, -0.094666, +1.026123, -0.114258, -3.494263, +0.778198, -5.767822
1491873282.986362, 1491873282.988783, -0.094666, +1.026123, -0.114258, -3.494263, +0.778198, -5.767822
1491873282.989048, 1491873282.991464, -0.094666, +1.026123, -0.114258, -4.104614, +0.885010, -6.454468
1491873282.991723, 1491873282.994018, -0.094666, +1.026123, -0.130005, -4.104614, +0.885010, -6.454468
1491873282.994276, 1491873282.996568, -0.100525, +1.026306, -0.130005, -4.501343, +0.915527, -7.141113
1491873282.996825, 1491873282.999123, -0.100525, +1.026306, -0.130005, -4.501343, +0.915527, -7.141113
1491873282.999380, 1491873283.001770, -0.100525, +1.026306, -0.130005, -5.249023, +0.961304, -7.858276
1491873283.002036, 1491873283.004459, -0.100525, +1.026306, -0.135132, -5.249023, +0.961304, -7.858276
1491873283.004725, 1491873283.007151, -0.094666, +1.030884, -0.135132, -5.386353, +0.946045, -8.926392
1491873283.007417, 1491873283.009848, -0.094666, +1.030884, -0.135132, -5.386353, +0.946045, -8.926392
1491873283.010229, 1491873283.012657, -0.094666, +1.030884, -0.135132, -6.362915, +0.961304, -10.040283
1491873283.012927, 1491873283.015353, -0.099609, +1.035645, -0.130188, -6.362915, +0.961304, -11.489868
1491873283.015622, 1491873283.018048, -0.099609, +1.035645, -0.130188, -7.171631, +0.396729, -11.489868
1491873283.018317, 1491873283.020752, -0.099609, +1.035645, -0.130188, -7.171631, +0.396729, -12.725830
1491873283.021020, 1491873283.023447, -0.099609, +1.035645, -0.130188, -8.422852, +0.000000, -12.725830
1491873283.023716, 1491873283.026144, -0.084045, +1.034546, -0.140808, -8.422852, -3.906250, -14.602661
1491873283.026414, 1491873283.028838, -0.084045, +1.034546, -0.140808, -9.155273, -0.244141, -14.602661
1491873283.029107, 1491873283.031542, -0.084045, +1.034546, -0.140808, -9.155273, -0.762939, -16.113281
1491873283.031813, 1491873283.034234, -0.084045, +1.034546, -0.140808, -10.208130, -0.762939, -16.113281
1491873283.034507, 1491873283.036932, -0.073425, +1.040222, -0.156738, -14.114380, -0.900269, -18.234253
1491873283.037204, 1491873283.039629, -0.073425, +1.040222, -0.156738, -12.115479, -0.900269, -18.234253
1491873283.039902, 1491873283.042223, -0.073425, +1.040222, -0.156738, -12.115479, -0.854492, -20.065308
1491873283.042488, 1491873283.044782, -0.073425, +1.040222, -0.148499, -13.717651, -0.854492, -20.065308
1491873283.045046, 1491873283.047344, -0.077454, +1.036011, -0.148499, -13.717651, -1.480103, -22.369385
1491873283.047608, 1491873283.049907, -0.077454, +1.036011, -0.148499, -15.487671, -1.480103, -22.369385
1491873283.050178, 1491873283.052602, -0.077454, +1.036011, -0.148499, -15.487671, -2.548218, -25.268555
1491873283.052874, 1491873283.055300, -0.077454, +1.036011, -0.166992, -16.586304, -2.548218, -25.268555
1491873283.055571, 1491873283.057996, +0.009888, +1.034363, -0.166992, -16.586304, -1.312256, -28.488159
1491873283.058269, 1491873283.060708, +0.009888, +1.034363, -0.166992, -17.364502, -1.312256, -28.488159
1491873283.060980, 1491873283.063399, +0.009888, +1.034363, -0.166992, -18.310547, +0.381470, -30.807495
1491873283.063671, 1491873283.066091, +0.035156, +1.031982, -0.253601, -18.310547, +0.381470, -30.807495
1491873283.066363, 1491873283.068784, +0.035156, +1.031982, -0.253601, -20.385742, +0.442505, -33.172607
1491873283.069056, 1491873283.071487, +0.035156, +1.031982, -0.253601, -20.385742, +0.442505, -33.172607
1491873283.071758, 1491873283.074181, +0.035156, +1.031982, -0.253601, -22.613525, +0.778198, -35.400391
1491873283.074452, 1491873283.076872, -0.162781, +1.042236, -0.214233, -22.613525, +0.778198, -35.400391
1491873283.077144, 1491873283.079571, -0.162781, +1.042236, -0.214233, -23.010254, -0.183105, -36.682129
1491873283.079843, 1491873283.082206, -0.162781, +1.042236, -0.214233, -23.010254, -0.183105, -36.682129
1491873283.082469, 1491873283.084773, -0.162781, +1.042236, -0.214233, -23.727417, -3.036499, -37.475586
1491873283.085035, 1491873283.087335, -0.165894, +1.047913, -0.117004, -23.727417, -3.036499, -37.475586
1491873283.087599, 1491873283.089901, -0.165894, +1.047913, -0.117004, -24.368286, -5.187988, -37.750244
1491873283.090173, 1491873283.092595, -0.165894, +1.047913, -0.117004, -24.368286, -5.187988, -37.750244
1491873283.092868, 1491873283.095295, -0.165894, +1.047913, -0.117004, -24.490356, -5.111694, -38.696289
1491873283.095567, 1491873283.097992, -0.178711, +1.016968, -0.102173, -24.490356, -5.111694, -38.696289
1491873283.098264, 1491873283.100696, -0.178711, +1.016968, -0.102173, -24.719238, -4.501343, -39.260864
1491873283.100969, 1491873283.103395, -0.178711, +1.016968, -0.102173, -24.719238, -4.501343, -39.260864
1491873283.103665, 1491873283.106087, -0.178711, +1.016968, -0.098511, -24.841309, -4.516602, -39.321899
1491873283.106361, 1491873283.108783, -0.187500, +0.988586, -0.098511, -24.841309, -4.516602, -39.321899
1491873283.109055, 1491873283.111491, -0.187500, +0.988586, -0.098511, -23.925781, -3.799438, -39.932251
1491873283.111765, 1491873283.114181, -0.187500, +0.988586, -0.098511, -23.925781, -3.799438, -39.932251
1491873283.114561, 1491873283.116990, -0.196838, +0.991150, -0.089355, -22.872925, -3.356934, -39.352417
1491873283.117261, 1491873283.119681, -0.196838, +0.991150, -0.089355, -22.872925, -3.356934, -39.352417
1491873283.119954, 1491873283.122265, -0.196838, +0.991150, -0.089355, -22.689819, -3.524780, -39.749146
1491873283.122530, 1491873283.124828, -0.196838, +0.991150, -0.089355, -22.689819, -3.524780, -39.749146
1491873283.125092, 1491873283.127391, -0.183289, +1.025024, -0.071594, -23.117065, -1.953125, -39.825439
1491873283.127654, 1491873283.129955, -0.183289, +1.025024, -0.071594, -23.117065, -1.953125, -39.825439
1491873283.130219, 1491873283.132520, -0.183289, +1.025024, -0.071594, -24.139404, -0.198364, -40.039062
1491873283.132786, 1491873283.135083, -0.183289, +1.025024, -0.071594, -24.139404, -0.198364, -40.039062
1491873283.135348, 1491873283.137647, -0.175415, +1.046448, -0.056030, -24.902344, +0.595093, -41.030884
1491873283.137911, 1491873283.140229, -0.175415, +1.046448, -0.056030, -24.902344, +0.595093, -41.030884
1491873283.140502, 1491873283.142923, -0.175415, +1.046448, -0.056030, -25.192261, +0.411987, -42.266846
1491873283.143196, 1491873283.145617, -0.175415, +1.046448, -0.056030, -25.192261, +0.411987, -42.266846
1491873283.145889, 1491873283.148308, -0.140991, +1.052673, -0.063904, -25.009155, +1.602173, -43.670654
1491873283.148580, 1491873283.151017, -0.140991, +1.052673, -0.063904, -25.009155, +1.602173, -43.670654
1491873283.151291, 1491873283.153707, -0.140991, +1.052673, -0.063904, -25.451660, +2.563477, -45.196533
1491873283.153978, 1491873283.156399, -0.140991, +1.052673, -0.063904, -25.451660, +2.563477, -45.196533
1491873283.156669, 1491873283.159092, -0.184570, +1.053223, -0.047424, -26.535034, +3.036499, -45.776367
1491873283.159363, 1491873283.161801, -0.184570, +1.053223, -0.047424, -26.535034, +3.036499, -45.776367
1491873283.162072, 1491873283.164499, -0.184570, +1.053223, -0.047424, -26.748657, +2.731323, -46.524048
1491873283.164770, 1491873283.167199, -0.184570, +1.054871, -0.044128, -26.748657, +2.731323, -46.524048
1491873283.167470, 1491873283.169898, -0.286011, +1.054871, -0.044128, -25.756836, +1.403809, -46.279907
1491873283.170180, 1491873283.172604, -0.286011, +1.054871, -0.044128, -25.756836, +1.403809, -46.279907
1491873283.172875, 1491873283.175302, -0.286011, +1.054871, -0.044128, -26.443481, -0.961304, -46.188354
1491873283.175573, 1491873283.177996, -0.287842, +1.076843, -0.039368, -26.443481, -0.961304, -46.188354
1491873283.178269, 1491873283.180675, -0.287842, +1.076843, -0.039368, -26.443481, -4.135132, -46.585083
1491873283.180938, 1491873283.183238, -0.287842, +1.076843, -0.039368, -26.443481, -4.135132, -46.585083
1491873283.183501, 1491873283.185797, -0.287842, +1.076843, -0.039368, -26.428223, -7.049561, -47.225952
1491873283.186061, 1491873283.188361, -0.291870, +1.084167, -0.047791, -26.428223, -7.049561, -47.225952
1491873283.188625, 1491873283.190973, -0.291870, +1.084167, -0.047791, -25.482178, -9.979248, -47.927856
1491873283.191244, 1491873283.193652, -0.291870, +1.084167, -0.047791, -25.482178, -9.979248, -47.927856
1491873283.193922, 1491873283.196335, -0.291870, +1.084167, -0.047791, -25.863647, -13.671875, -48.126221
1491873283.196607, 1491873283.199011, -0.301208, +1.147522, -0.047424, -25.863647, -13.671875, -48.126221
1491873283.199284, 1491873283.201704, -0.301208, +1.147522, -0.047424, -25.985718, -17.272949, -48.583984
1491873283.201976, 1491873283.204381, -0.301208, +1.147522, -0.047424, -25.985718, -17.272949, -48.583984
1491873283.204653, 1491873283.207060, -0.301208, +1.147522, -0.000549, -27.130127, -19.088745, -49.591064
1491873283.207332, 1491873283.209737, -0.214233, +1.165100, -0.039917, -27.130127, -19.088745, -53.497314
1491873283.210009, 1491873283.212424, -0.214233, +1.165100, -0.039917, -29.098511, -19.668579, -51.040649
1491873283.212698, 1491873283.215106, -0.214233, +1.165100, -0.039917, -29.098511, -19.668579, -53.070068
1491873283.215379, 1491873283.217787, -0.214233, +1.095520, -0.034424, -32.806396, -18.615723, -53.070068
1491873283.218166, 1491873283.220585, -0.010803, +1.095520, -0.034424, -32.806396, -18.615723, -55.480957
1491873283.220856, 1491873283.223262, -0.010803, +1.095520, -0.034424, -36.010742, -13.381958, -55.480957
1491873283.223533, 1491873283.225938, -0.010803, +1.095520, -0.034424, -36.010742, -1.663208, -58.197021
1491873283.226209, 1491873283.228615, +0.043579, +0.832397, -0.155640, -37.612915, -3.402710, -58.197021
1491873283.228887, 1491873283.231244, +0.043579, +0.832397, -0.155640, -37.612915, +4.409790, -58.166504
1491873283.231509, 1491873283.233806, +0.043579, +0.832397, -0.155640, -35.842896, +5.767822, -58.166504
1491873283.234069, 1491873283.236367, +0.043579, +0.832397, -0.155640, -35.842896, +9.674072, -55.969238
1491873283.236632, 1491873283.238929, -0.412170, +0.744873, -0.291687, -32.302856, +9.094238, -55.969238
1491873283.239192, 1491873283.241965, -0.412170, +0.744873, -0.291687, -32.302856, +6.896973, -53.756714
1491873283.242246, 1491873283.244670, -0.412170, +0.744873, -0.291687, -28.976440, +6.896973, -53.756714
1491873283.244942, 1491873283.247359, -0.412170, +0.744873, -0.291687, -25.070190, +1.403809, -50.750732
1491873283.247630, 1491873283.250089, -0.626404, +0.765747, -0.118652, -25.024414, +1.403809, -50.750732
1491873283.250369, 1491873283.252796, -0.626404, +0.765747, -0.118652, -22.842407, -5.020142, -45.867920
1491873283.253068, 1491873283.255486, -0.626404, +0.765747, -0.118652, -22.842407, -5.020142, -45.867920
1491873283.255758, 1491873283.258185, -0.626404, +0.906372, +0.067200, -23.391724, -10.162354, -41.839600
1491873283.258461, 1491873283.260891, -0.617432, +0.904175, +0.067200, -23.391724, -10.162354, -41.839600
1491873283.261168, 1491873283.263590, -0.617432, +0.904175, +0.067200, -23.361206, -15.106201, -36.361694
1491873283.263866, 1491873283.266286, -0.617432, +0.904175, +0.067200, -23.361206, -15.106201, -36.361694
1491873283.266560, 1491873283.268980, -0.500977, +1.096252, +0.183472, -22.354126, -20.523071, -32.440186
1491873283.269254, 1491873283.271690, -0.500977, +1.096252, +0.183472, -22.354126, -20.523071, -32.440186
1491873283.271964, 1491873283.274385, -0.500977, +1.096252, +0.183472, -22.705078, -22.094727, -29.739380
1491873283.274661, 1491873283.277078, -0.500977, +1.096252, +0.183472, -22.705078, -22.094727, -29.739380
1491873283.277351, 1491873283.279771, -0.294617, +1.273865, +0.289490, -23.391724, -20.477295, -28.259277
1491873283.280101, 1491873283.282530, -0.294617, +1.273865, +0.289490, -23.391724, -20.477295, -28.259277
1491873283.282803, 1491873283.285229, -0.294617, +1.273865, +0.289490, -23.178101, -17.684937, -27.435303
1491873283.285502, 1491873283.287921, -0.294617, +1.273865, +0.289490, -23.178101, -17.684937, -27.435303
1491873283.288194, 1491873283.290625, -0.128723, +1.310120, +0.203796, -22.994995, -12.145996, -26.885986
1491873283.290899, 1491873283.293323, -0.128723, +1.310120, +0.203796, -22.994995, -12.145996, -26.885986
1491873283.293596, 1491873283.296021, -0.128723, +1.310120, +0.203796, -23.712158, -4.699707, -26.580811
1491873283.296293, 1491873283.298715, -0.128723, +1.310120, -0.044312, -23.712158, -4.699707, -26.580811
1491873283.298985, 1491873283.301417, -0.138611, +1.101379, -0.044312, -23.284912, +2.380371, -26.367188
1491873283.301688, 1491873283.304113, -0.138611, +1.101379, -0.044312, -23.284912, +2.380371, -26.367188
1491873283.304385, 1491873283.306808, -0.138611, +1.101379, -0.044312, -20.996094, +8.636475, -24.978638
1491873283.307081, 1491873283.309506, -0.466736, +0.855103, -0.291138, -20.996094, +8.636475, -24.978638
1491873283.309778, 1491873283.312212, -0.456116, +0.855103, -0.291138, -17.333984, +10.192871, -21.392822
1491873283.312487, 1491873283.314910, -0.456116, +0.855103, -0.291138, -17.333984, +10.192871, -13.580322
1491873283.315182, 1491873283.317606, -0.456116, +0.855103, -0.291138, -12.023926, +9.658813, -15.289307
1491873283.317877, 1491873283.320307, -0.892090, +0.572571, -0.285645, -12.023926, +9.658813, -6.515503
1491873283.320577, 1491873283.322998, -0.892090, +0.572571, -0.285645, -3.265381, +5.508423, -6.515503
1491873283.323373, 1491873283.325796, -0.892090, +0.572571, -0.285645, -3.265381, +5.508423, +3.280640
1491873283.326061, 1491873283.328488, -0.892090, +0.572571, -0.285645, +7.064819, -1.800537, +3.280640
1491873283.328753, 1491873283.331132, -1.140198, +0.800354, +0.156189, +7.064819, -13.519287, +14.694214
1491873283.331395, 1491873283.333694, -1.140198, +0.800354, +0.156189, +16.723633, -12.252808, +14.694214
1491873283.333960, 1491873283.336261, -1.140198, +0.800354, +0.156189, +16.723633, -12.252808, +27.877808
1491873283.336526, 1491873283.338824, -1.140198, +0.800354, +0.671814, +23.864746, -19.241333, +27.877808
1491873283.339090, 1491873283.341510, -0.517822, +1.405334, +0.696899, +23.864746, -19.241333, +38.269043
1491873283.341785, 1491873283.344205, -0.517822, +1.405334, +0.696899, +28.900146, -16.448975, +38.269043
1491873283.344478, 1491873283.346904, -0.517822, +1.405334, +0.696899, +28.900146, -4.730225, +45.684814
1491873283.347174, 1491873283.349595, -0.517822, +1.827209, +0.739197, +31.692505, -7.278442, +45.684814
1491873283.349866, 1491873283.352298, -0.185303, +1.824097, +0.739197, +31.692505, +0.534058, +51.300049
1491873283.352569, 1491873283.354997, -0.185303, +1.824097, +0.739197, +33.432007, +1.846313, +51.300049
1491873283.355271, 1491873283.357696, -0.185303, +1.824097, +0.739197, +33.432007, +8.285522, +54.077148
1491873283.357968, 1491873283.360397, -0.164062, +2.109192, +0.505005, +34.637451, +8.285522, +54.077148
1491873283.360670, 1491873283.363096, -0.164062, +2.109192, +0.505005, +38.543701, +13.702393, +56.747437
1491873283.363371, 1491873283.365794, -0.164062, +2.109192, +0.505005, +36.651611, +13.702393, +56.747437
1491873283.366068, 1491873283.368493, -0.164062, +2.109192, +0.505005, +39.993286, +18.676758, +58.410645
1491873283.368767, 1491873283.371204, -0.024719, +2.333130, +0.202881, +39.993286, +18.676758, +58.410645
1491873283.371479, 1491873283.373903, -0.024719, +2.333130, +0.202881, +42.434692, +23.681641, +56.991577
1491873283.374178, 1491873283.376600, -0.024719, +2.333130, +0.202881, +42.434692, +23.681641, +56.991577
1491873283.376873, 1491873283.379298, -0.024719, +2.333130, +0.202881, +43.487549, +25.344849, +55.862427
1491873283.379572, 1491873283.381916, +0.009888, +2.484924, -0.050537, +43.487549, +25.344849, +55.862427
1491873283.382183, 1491873283.384482, +0.009888, +2.484924, -0.050537, +44.555664, +21.636963, +58.502197
1491873283.384749, 1491873283.387043, +0.009888, +2.484924, -0.050537, +44.555664, +21.636963, +58.502197
1491873283.387309, 1491873283.389608, +0.009888, +2.484924, -0.331787, +47.424316, +12.145996, +65.185547
1491873283.389877, 1491873283.392213, +0.212219, +2.272705, -0.358337, +47.424316, +12.145996, +65.185547
1491873283.392480, 1491873283.394777, +0.212219, +2.272705, -0.358337, +51.910400, +0.900269, +74.966431
1491873283.395041, 1491873283.397338, +0.212219, +2.272705, -0.358337, +51.910400, +0.900269, +74.966431
1491873283.397602, 1491873283.399903, +0.212219, +2.272705, -0.515991, +55.816650, -5.249023, +82.366943
1491873283.400182, 1491873283.402607, +0.316589, +1.901550, -0.515991, +54.977417, -5.249023, +82.366943
1491873283.402879, 1491873283.405305, +0.316589, +1.901550, -0.515991, +59.005737, -9.719849, +90.454102
1491873283.405578, 1491873283.408002, +0.316589, +1.901550, -0.515991, +59.005737, -9.719849, +90.454102
1491873283.408273, 1491873283.410707, +0.316589, +1.493225, -0.547302, +64.926147, -19.699097, +97.961426
1491873283.410983, 1491873283.413406, +0.313660, +1.493225, -0.547302, +64.926147, -19.699097, +97.961426
1491873283.413681, 1491873283.416107, +0.313660, +1.493225, -0.547302, +70.175171, -29.739380, +108.734131
1491873283.416382, 1491873283.418806, +0.313660, +1.493225, -0.547302, +70.175171, -29.739380, +108.734131
1491873283.419081, 1491873283.421520, +0.152344, +1.440857, -0.430664, +72.052002, -33.218384, +116.928101
1491873283.421794, 1491873283.424219, +0.152344, +1.440857, -0.430664, +72.052002, -33.218384, +116.928101
1491873283.424494, 1491873283.426911, +0.152344, +1.440857, -0.430664, +69.686890, -38.345337, +115.783691
1491873283.427290, 1491873283.429719, +0.152344, +1.440857, -0.430664, +69.686890, -38.345337, +115.783691
1491873283.429993, 1491873283.432293, -0.098694, +1.460999, -0.246826, +68.649292, -46.890259, +105.773926
1491873283.432562, 1491873283.434865, -0.098694, +1.460999, -0.246826, +68.649292, -46.890259, +105.773926
1491873283.435131, 1491873283.437430, -0.098694, +1.460999, -0.246826, +60.684204, -50.888062, +100.708008
1491873283.437696, 1491873283.439998, -0.098694, +1.460999, -0.246826, +60.684204, -50.888062, +100.708008
1491873283.440331, 1491873283.442755, -0.441284, +0.891541, +0.007324, +52.368164, -49.636841, +100.692749
1491873283.443030, 1491873283.445454, -0.441284, +0.891541, +0.007324, +52.368164, -49.636841, +100.692749
1491873283.445729, 1491873283.448150, -0.441284, +0.891541, +0.007324, +42.892456, -58.349609, +100.769043
1491873283.448425, 1491873283.450897, -0.441284, +0.891541, +0.071594, +42.892456, -58.349609, +100.769043
1491873283.451172, 1491873283.453597, -0.830383, +0.472595, +0.071594, +35.095215, -70.236206, +95.626831
1491873283.453871, 1491873283.456298, -0.830383, +0.472595, +0.071594, +35.095215, -70.236206, +95.626831
1491873283.456573, 1491873283.458998, -0.830383, +0.472595, +0.071594, +28.686523, -73.913574, +82.672119
1491873283.459273, 1491873283.461708, -1.392883, +0.423157, -0.006226, +28.686523, -73.913574, +82.672119
1491873283.461982, 1491873283.464408, -1.367065, +0.423157, -0.006226, +23.284912, -73.089600, +67.962646
1491873283.464684, 1491873283.467111, -1.367065, +0.423157, -0.006226, +23.284912, -73.089600, +67.962646
1491873283.467386, 1491873283.469811, -1.367065, +0.423157, -0.006226, +19.332886, -80.261230, +59.341431
1491873283.470097, 1491873283.472396, -1.429688, +0.421875, -0.088806, +19.332886, -80.261230, +59.341431
1491873283.472664, 1491873283.474967, -1.429688, +0.421875, -0.088806, +13.336182, -87.310791, +56.396484
1491873283.475233, 1491873283.477531, -1.429688, +0.421875, -0.088806, +13.336182, -87.310791, +56.396484
1491873283.477800, 1491873283.480147, -1.429688, +0.421875, -0.088806, +11.764526, -85.647583, +49.423218
1491873283.480422, 1491873283.482841, -0.709351, +0.193359, -0.090271, +11.764526, -85.647583, +49.423218
1491873283.483117, 1491873283.485542, -0.709351, +0.193359, -0.090271, +15.731812, -74.462891, +38.589478
1491873283.485816, 1491873283.488242, -0.709351, +0.193359, -0.090271, +15.731812, -74.462891, +38.589478
1491873283.488516, 1491873283.490948, -0.709351, +0.193359, -0.090271, +17.913818, -53.131104, +25.207520
1491873283.491223, 1491873283.493651, -0.580261, +0.403564, +0.038635, +17.913818, -53.131104, +5.676270
1491873283.493925, 1491873283.496355, -0.580261, +0.403564, +0.038635, +18.692017, -33.187866, +5.096436
1491873283.496627, 1491873283.499048, -0.580261, +0.403564, +0.038635, +18.692017, -33.187866, -2.716064
1491873283.499320, 1491873283.501757, -0.580261, +0.450439, +0.006226, +13.473511, -18.661499, -3.448486
1491873283.502030, 1491873283.504452, -0.835510, +0.426086, +0.006226, +13.473511, -18.661499, -0.854492
1491873283.504724, 1491873283.507146, -0.835510, +0.426086, +0.006226, +6.301880, -14.175415, -0.854492
1491873283.507418, 1491873283.509845, -0.835510, +0.426086, +0.006226, +6.301880, -14.175415, +0.396729
1491873283.510126, 1491873283.512422, -0.390930, +0.307800, +0.027832, +3.692627, -16.723633, +0.396729
1491873283.512684, 1491873283.514986, -0.390930, +0.307800, +0.027832, +3.692627, -16.723633, +0.518799
1491873283.515248, 1491873283.517545, -0.390930, +0.307800, +0.027832, +5.065918, -17.333984, +0.518799
1491873283.517807, 1491873283.520157, -0.390930, +0.307800, +0.027832, +5.065918, -17.333984, +0.717163
1491873283.520420, 1491873283.522721, -0.118103, +0.259460, +0.056763, +6.103516, -13.610840, +0.717163
1491873283.522985, 1491873283.525284, -0.118103, +0.259460, +0.056763, +6.103516, -13.610840, +0.717163
1491873283.525546, 1491873283.527843, -0.118103, +0.259460, +0.056763, +6.805420, -9.368896, +1.022339
1491873283.528100, 1491873283.530404, -0.118103, +0.259460, +0.056763, +6.805420, -9.368896, +1.022339
1491873283.530768, 1491873283.533066, -0.127075, +0.094116, +0.078369, +6.546021, -7.354736, +2.136230
1491873283.533323, 1491873283.535616, -0.127075, +0.094116, +0.078369, +6.546021, -7.354736, +2.136230
1491873283.535872, 1491873283.538170, -0.127075, +0.094116, +0.078369, +5.416870, -5.203247, +4.379272
1491873283.538427, 1491873283.540774, -0.127075, +0.094116, +0.078369, +5.416870, -5.203247, +4.379272
1491873283.541039, 1491873283.543462, -0.151245, -0.017395, +0.146118, +4.714966, -1.220703, +7.644653
1491873283.543728, 1491873283.546153, -0.151245, -0.017395, +0.146118, +4.714966, -1.220703, +7.644653
1491873283.546417, 1491873283.548840, -0.151245, -0.017395, +0.146118, +4.669189, +4.287720, +10.910034
1491873283.549107, 1491873283.551546, -0.151245, -0.017395, +0.146118, +4.669189, +4.287720, +14.816284
1491873283.551815, 1491873283.554240, -0.175415, -0.041931, +0.158203, +4.714966, +11.642456, +14.022827
1491873283.554512, 1491873283.556932, -0.175415, -0.041931, +0.158203, +4.714966, +11.642456, +17.929077
1491873283.557205, 1491873283.559629, -0.175415, -0.041931, +0.158203, +4.913330, +20.309448, +16.586304
1491873283.559899, 1491873283.562335, -0.175415, -0.041931, +0.163147, +4.913330, +20.309448, +19.622803
1491873283.562605, 1491873283.565030, -0.157654, -0.054382, +0.163147, +4.608154, +30.471802, +19.622803
1491873283.565301, 1491873283.567724, -0.157654, -0.054382, +0.163147, +4.608154, +30.471802, +21.362305
1491873283.567994, 1491873283.570424, -0.157654, -0.054382, +0.163147, +3.875732, +40.954590, +21.362305
1491873283.570696, 1491873283.573118, -0.157654, -0.038086, +0.191895, +3.875732, +48.767090, +22.155762
1491873283.573390, 1491873283.575814, -0.136414, -0.038086, +0.191895, +4.516602, +50.216675, +22.155762
1491873283.576087, 1491873283.578509, -0.136414, -0.038086, +0.191895, +4.516602, +55.007935, +19.104004
1491873283.578781, 1491873283.581151, -0.136414, -0.038086, +0.191895, +6.164551, +55.007935, +19.104004
1491873283.581415, 1491873283.583717, -0.206543, +0.061157, +0.004944, +6.164551, +47.821045, +11.871338
1491873283.583983, 1491873283.586280, -0.206543, +0.061157, +0.004944, +9.368896, +47.821045, +11.871338
1491873283.586547, 1491873283.588844, -0.206543, +0.061157, +0.004944, +9.368896, +36.102295, +6.454468
1491873283.589104, 1491873283.591519, -0.206543, +0.061157, +0.004944, +7.705688, +37.414551, +6.454468
1491873283.591789, 1491873283.594208, -0.041565, +0.055481, -0.001099, +7.705688, +33.508301, +3.707886
1491873283.594478, 1491873283.596899, -0.041565, +0.055481, -0.001099, +4.074097, +34.439087, +3.707886
1491873283.597168, 1491873283.599594, -0.041565, +0.055481, -0.001099, +4.074097, +46.478271, +0.427246
1491873283.599864, 1491873283.602297, -0.041565, +0.055481, -0.001099, +3.250122, +46.478271, +0.427246
1491873283.602566, 1491873283.604993, +0.243530, +0.096680, +0.182556, +3.250122, +67.321777, -3.570557
1491873283.605263, 1491873283.607690, +0.243530, +0.096680, +0.182556, +3.265381, +67.321777, -3.570557
1491873283.607959, 1491873283.610396, +0.243530, +0.096680, +0.182556, +3.265381, +84.808350, -12.878418
1491873283.610670, 1491873283.613092, +0.243530, +0.096680, +0.431946, +3.112793, +84.808350, -12.878418
1491873283.613364, 1491873283.615788, +0.171936, +0.294800, +0.431946, +0.778198, +92.529297, -27.130127
1491873283.616059, 1491873283.618483, +0.171936, +0.294800, +0.431946, +0.778198, +92.529297, -27.130127
1491873283.618754, 1491873283.621198, +0.171936, +0.294800, +0.431946, -5.508423, +99.670410, -42.892456
1491873283.621470, 1491873283.623898, +0.171936, +0.258179, +0.520752, -5.508423, +99.670410, -42.892456
1491873283.624172, 1491873283.626600, -0.166626, +0.258179, +0.520752, -13.092041, +111.785889, -57.373047
1491873283.626876, 1491873283.629302, -0.166626, +0.258179, +0.520752, -13.092041, +111.785889, -57.373047
1491873283.629576, 1491873283.631918, -0.166626, +0.258179, +0.520752, -19.073486, +118.591309, -71.151733
1491873283.632185, 1491873283.634482, -0.987122, -0.023804, +0.329041, -19.073486, +118.591309, -71.151733
1491873283.634856, 1491873283.637161, -0.987122, -0.023804, +0.329041, -21.652222, +116.088867, -82.946777
1491873283.637429, 1491873283.639727, -0.987122, -0.023804, +0.329041, -21.652222, +116.088867, -82.946777
1491873283.639994, 1491873283.642294, -0.987122, -0.023804, +0.329041, -15.441895, +95.260620, -103.744507
1491873283.642562, 1491873283.644859, -2.582703, -0.453186, -0.196655, -15.441895, +95.260620, -103.744507
1491873283.645125, 1491873283.647416, -2.582703, -0.453186, -0.196655, -17.608643, +65.795898, -92.529297
1491873283.647682, 1491873283.649976, -2.582703, -0.453186, -0.196655, -17.608643, +65.795898, -92.529297
1491873283.650311, 1491873283.652733, -2.582703, -0.453186, -0.196655, -38.085938, +53.970337, -91.247559
1491873283.653007, 1491873283.655429, -2.527954, +1.473083, +1.421631, -38.085938, +53.970337, -91.247559
1491873283.655701, 1491873283.658125, -2.527954, +1.473083, +1.421631, -64.956665, +89.340210, -90.118408
1491873283.658398, 1491873283.660829, -2.527954, +1.473083, +1.421631, -64.956665, +89.340210, -90.118408
1491873283.661100, 1491873283.663522, -2.527954, +1.473083, +1.421631, -67.474365, +125.289917, -72.189331
1491873283.663794, 1491873283.666215, -1.001404, +1.655273, +0.175232, -67.474365, +125.289917, -72.189331
1491873283.666488, 1491873283.668908, -1.001404, +1.655273, +0.175232, -43.334961, +63.644409, -90.164185
1491873283.669180, 1491873283.671608, -1.001404, +1.655273, +0.175232, -43.334961, +63.644409, -90.164185
1491873283.671880, 1491873283.674305, -1.001404, +1.561523, -0.482300, -39.688110, +26.809692, -78.216553
1491873283.674578, 1491873283.677003, +0.791931, +1.582581, -0.482300, -39.688110, +26.809692, -78.216553
1491873283.677278, 1491873283.679707, +0.791931, +1.582581, -0.482300, -22.232056, +46.737671, -50.048828
1491873283.679981, 1491873283.682296, +0.791931, +1.582581, -0.482300, -22.232056, +46.737671, -50.048828
1491873283.682561, 1491873283.684860, +1.823181, +1.591370, -2.662537, -1.586914, +43.579102, -34.469604
1491873283.685121, 1491873283.687424, +1.801025, +1.591370, -2.662537, -1.586914, +43.579102, -34.469604
1491873283.687684, 1491873283.689982, +1.801025, +1.591370, -2.662537, +15.426636, +34.530640, -28.732300
1491873283.690309, 1491873283.692730, +1.801025, +1.591370, -2.662537, +15.426636, +34.530640, -28.732300
1491873283.693000, 1491873283.695425, +0.065735, +1.479492, -1.981567, +21.423340, +53.039551, -23.117065
1491873283.695697, 1491873283.698123, +0.065735, +1.479492, -1.981567, +21.423340, +53.039551, -23.117065
1491873283.698397, 1491873283.700823, +0.065735, +1.479492, -1.981567, +15.548706, +65.475464, -7.827759
1491873283.701095, 1491873283.703517, +0.065735, +1.479492, -1.981567, +15.548706, +65.475464, -7.827759
1491873283.703786, 1491873283.706206, +0.131470, +1.794800, -1.024109, +17.944336, +43.350220, +5.493164
1491873283.706475, 1491873283.708900, +0.131470, +1.794800, -1.024109, +17.944336, +43.350220, +5.493164
1491873283.709170, 1491873283.711608, +0.131470, +1.794800, -1.024109, +19.287109, +21.438599, +14.114380
1491873283.711882, 1491873283.714305, +0.131470, +1.794800, -1.024109, +19.287109, +21.438599, +14.114380
1491873283.714577, 1491873283.717003, +0.002747, +1.716980, -0.302856, +6.668091, +15.777588, +24.536133
1491873283.717275, 1491873283.719701, +0.002747, +1.716980, -0.302856, +6.668091, +15.777588, +24.536133
1491873283.719973, 1491873283.722297, +0.002747, +1.716980, -0.302856, -1.174927, +21.011353, +37.612915
1491873283.722562, 1491873283.724857, +0.002747, +1.060730, -0.140625, -1.174927, +21.011353, +37.612915
1491873283.725122, 1491873283.727421, +0.368958, +1.042236, -0.140625, -2.624512, +29.067993, +46.096802
1491873283.727684, 1491873283.729988, +0.368958, +1.042236, -0.140625, -2.624512, +29.067993, +46.096802
1491873283.730327, 1491873283.732743, +0.368958, +1.042236, -0.140625, -7.263184, +35.552979, +39.535522
1491873283.733013, 1491873283.735438, +0.368958, +2.783936, +0.683167, -7.263184, +35.552979, +39.535522
1491873283.735811, 1491873283.738239, +0.530457, +2.783936, +0.683167, -17.776489, +46.554565, +13.809204
1491873283.738513, 1491873283.740954, +0.530457, +2.783936, +0.683167, -17.776489, +46.554565, -5.722046
1491873283.741224, 1491873283.743655, +0.530457, +2.783936, +0.683167, -29.098511, +54.321289, -6.256104
1491873283.743927, 1491873283.746350, +1.690430, +5.440430, -0.081665, -29.098511, +54.321289, -20.401001
1491873283.746623, 1491873283.749049, +1.690430, +5.440430, -0.081665, -27.648926, +46.264648, -20.401001
1491873283.749324, 1491873283.751767, +1.690430, +5.440430, -0.081665, -27.648926, +46.264648, -40.496826
1491873283.752040, 1491873283.754468, +1.690430, +5.440430, -0.081665, -39.291382, +64.041138, -40.496826
1491873283.754742, 1491873283.757169, +0.902344, +2.009766, -0.004395, -39.291382, +95.291138, -42.312622
1491873283.757443, 1491873283.759887, +0.902344, +2.009766, -0.004395, -45.425415, +96.054077, -42.312622
1491873283.760172, 1491873283.762471, +0.902344, +2.009766, -0.004395, -45.425415, +92.147827, -28.778076
1491873283.762738, 1491873283.765034, +0.902344, +2.009766, +0.604980, -31.570435, +90.713501, -28.778076
1491873283.765301, 1491873283.767595, -0.901794, +0.396790, +0.603699, -31.570435, +90.713501, -27.542114
1491873283.767864, 1491873283.770273, -0.901794, +0.396790, +0.603699, -10.498047, +58.425903, -27.542114
1491873283.770555, 1491873283.772861, -0.901794, +0.396790, +0.603699, -10.498047, +58.425903, -25.024414
1491873283.773128, 1491873283.775425, -0.901794, +0.396790, +0.205444, +1.068115, +31.448364, -25.024414
1491873283.775688, 1491873283.777986, -1.099365, +0.523315, +0.205444, +1.068115, +31.448364, -13.168335
1491873283.778249, 1491873283.780586, -1.099365, +0.523315, +0.205444, +10.528564, +17.227173, -13.168335
1491873283.780859, 1491873283.783282, -1.099365, +0.523315, +0.205444, +10.528564, +17.227173, +0.183105
1491873283.783553, 1491873283.785979, -1.099365, +0.757690, -0.182007, +13.320923, +17.257690, +0.183105
1491873283.786250, 1491873283.788669, -0.728760, +0.768494, -0.182007, +13.320923, +17.257690, +12.634277
1491873283.788943, 1491873283.791368, -0.728760, +0.768494, -0.182007, +13.351440, +18.692017, +12.634277
1491873283.791642, 1491873283.794069, -0.728760, +0.768494, -0.182007, +13.351440, +14.785767, +24.490356
1491873283.794340, 1491873283.796764, -0.778381, +0.908569, -0.154175, +13.458252, +13.595581, +24.490356
1491873283.797036, 1491873283.799462, -0.778381, +0.908569, -0.154175, +13.458252, +7.110596, +34.484863
1491873283.799733, 1491873283.802171, -0.778381, +0.908569, -0.154175, +15.548706, +7.110596, +34.484863
1491873283.802441, 1491873283.804867, -0.778381, +0.908569, -0.154175, +19.454956, +0.198364, +43.731689
1491873283.805139, 1491873283.807564, -0.604980, +0.992432, -0.071045, +17.135620, +0.198364, +43.731689
1491873283.807836, 1491873283.810299, -0.604980, +0.992432, -0.071045, +17.135620, -3.723145, +50.720215
1491873283.810571, 1491873283.812994, -0.604980, +0.992432, -0.071045, +17.745972, -3.723145, +50.720215
1491873283.813266, 1491873283.815692, -0.604980, +0.992432, -0.071045, +18.112183, -3.845215, +54.824829
1491873283.815964, 1491873283.818385, -0.386719, +1.050110, -0.016846, +18.112183, -3.845215, +54.824829
1491873283.818657, 1491873283.821042, -0.386719, +1.050110, -0.016846, +18.020630, -0.366211, +55.572510
1491873283.821308, 1491873283.823605, -0.386719, +1.050110, -0.016846, +18.020630, -0.366211, +55.572510
1491873283.823870, 1491873283.826171, -0.386719, +1.050110, -0.040100, +18.020630, +5.798340, +54.931641
1491873283.826434, 1491873283.828729, -0.199402, +1.059631, -0.040100, +18.020630, +5.798340, +54.931641
1491873283.828993, 1491873283.831371, -0.199402, +1.059631, -0.040100, +17.501831, +12.893677, +52.001953
1491873283.831645, 1491873283.834052, -0.199402, +1.059631, -0.040100, +17.501831, +12.893677, +52.001953
1491873283.834325, 1491873283.836730, -0.199402, +1.012756, -0.113159, +17.395020, +19.805908, +48.660278
1491873283.837002, 1491873283.839409, -0.014465, +1.015503, -0.113159, +17.395020, +19.805908, +48.660278
1491873283.839788, 1491873283.842210, -0.014465, +1.015503, -0.113159, +17.120361, +26.687622, +45.303345
1491873283.842482, 1491873283.844893, -0.014465, +1.015503, -0.113159, +17.120361, +26.687622, +45.303345
1491873283.845165, 1491873283.847573, +0.150146, +0.965149, -0.258362, +16.693115, +33.935547, +41.381836
1491873283.847845, 1491873283.850292, +0.150146, +0.965149, -0.258362, +16.693115, +33.935547, +41.381836
1491873283.850563, 1491873283.852944, +0.150146, +0.965149, -0.258362, +16.479492, +39.184570, +37.078857
1491873283.853215, 1491873283.855590, +0.150146, +0.965149, -0.258362, +16.479492, +39.184570, +37.078857
1491873283.855860, 1491873283.858245, +0.100525, +0.993896, -0.355408, +15.274048, +40.054321, +33.859253
1491873283.858517, 1491873283.860942, +0.100525, +0.993896, -0.355408, +15.274048, +40.054321, +33.859253
1491873283.861217, 1491873283.863643, +0.100525, +0.993896, -0.355408, +13.610840, +37.902832, +31.097412
1491873283.863918, 1491873283.866346, +0.100525, +0.993896, -0.355408, +13.610840, +37.902832, +31.097412
1491873283.866620, 1491873283.869042, +0.010437, +0.971741, -0.286194, +12.176514, +34.042358, +28.884888
1491873283.869316, 1491873283.871673, +0.010437, +0.971741, -0.286194, +12.176514, +34.042358, +28.884888
1491873283.871941, 1491873283.874235, +0.010437, +0.971741, -0.286194, +10.360718, +29.541016, +26.397705
1491873283.874505, 1491873283.876802, +0.010437, +0.971741, -0.192444, +10.360718, +29.541016, +26.397705
1491873283.877068, 1491873283.879372, -0.110779, +0.980164, -0.193176, +8.392334, +23.895264, +23.834229
1491873283.879637, 1491873283.881942, -0.110779, +0.980164, -0.193176, +8.392334, +23.895264, +23.834229
1491873283.882205, 1491873283.884503, -0.110779, +0.980164, -0.193176, +6.210327, +18.478394, +22.262573
1491873283.884765, 1491873283.887059, -0.110779, +0.980164, -0.157104, +6.210327, +18.478394, +22.262573
1491873283.887322, 1491873283.889620, -0.127808, +1.014771, -0.157104, +4.852295, +14.190674, +20.706177
1491873283.889882, 1491873283.892330, -0.127808, +1.014771, -0.157104, +4.852295, +14.190674, +20.706177
1491873283.892603, 1491873283.895020, -0.127808, +1.014771, -0.157104, +3.814697, +11.383057, +18.310547
1491873283.895291, 1491873283.897710, -0.127808, +0.986206, -0.186584, +3.814697, +11.383057, +18.310547
1491873283.897983, 1491873283.900422, -0.038635, +0.986206, -0.186584, +2.685547, +11.276245, +17.318726
1491873283.900695, 1491873283.903118, -0.038635, +0.986206, -0.186584, +2.685547, +11.276245, +17.318726
1491873283.903389, 1491873283.905806, -0.038635, +0.986206, -0.186584, +2.777100, +12.481689, +15.914917
1491873283.906080, 1491873283.908506, -0.084045, +0.962402, -0.189880, +2.777100, +12.481689, +15.914917
1491873283.908777, 1491873283.911207, -0.084045, +0.962402, -0.189880, +2.700806, +13.946533, +13.931274
1491873283.911479, 1491873283.913905, -0.084045, +0.962402, -0.189880, +2.700806, +13.946533, +13.931274
1491873283.914178, 1491873283.916598, -0.084045, +0.962402, -0.189880, +1.708984, +15.869141, +12.405396
1491873283.916869, 1491873283.919290, -0.116638, +1.007446, -0.162415, +1.708984, +15.869141, +12.405396
1491873283.919561, 1491873283.921901, -0.116638, +1.007446, -0.162415, +0.823975, +16.983032, +10.314941
1491873283.922167, 1491873283.924465, -0.116638, +1.007446, -0.162415, +0.823975, +16.983032, +10.314941
1491873283.924729, 1491873283.927031, -0.116638, +1.007446, -0.162415, +0.091553, +18.417358, +8.453369
1491873283.927293, 1491873283.929590, -0.052917, +1.032898, -0.195923, +0.091553, +18.417358, +8.453369
1491873283.929851, 1491873283.932333, -0.052917, +1.032898, -0.195923, -0.106812, +20.874023, +7.141113
1491873283.932603, 1491873283.935029, -0.052917, +1.032898, -0.195923, -0.106812, +20.874023, +7.141113
1491873283.935299, 1491873283.937725, -0.052917, +1.032898, -0.195923, -1.159668, +21.697998, +5.767822
1491873283.937993, 1491873283.940419, -0.081482, +1.068970, -0.200867, -1.159668, +21.697998, +5.767822
1491873283.940689, 1491873283.943115, -0.081482, +1.068970, -0.200867, -1.937866, +21.484375, +5.111694
1491873283.943496, 1491873283.945925, -0.081482, +1.068970, -0.200867, -1.937866, +21.484375, +5.111694
1491873283.946194, 1491873283.948622, -0.081482, +1.085815, -0.166626, -2.456665, +19.668579, +4.409790
1491873283.948890, 1491873283.951329, -0.144470, +1.085815, -0.166626, -2.456665, +19.668579, +4.409790
1491873283.951595, 1491873283.954020, -0.144470, +1.085815, -0.166626, -3.204346, +16.418457, +4.013062
1491873283.954287, 1491873283.956714, -0.144470, +1.085815, -0.166626, -3.204346, +16.418457, +3.356934
1491873283.956980, 1491873283.959401, -0.173401, +1.069885, -0.143188, -3.570557, +13.076782, +3.356934
1491873283.959670, 1491873283.962111, -0.173401, +1.069885, -0.143188, -3.570557, +13.076782, +2.304077
1491873283.962378, 1491873283.964803, -0.173401, +1.069885, -0.143188, -3.631592, +10.177612, +2.304077
1491873283.965071, 1491873283.967497, -0.173401, +1.069885, -0.143188, -3.631592, +10.177612, +1.495361
1491873283.967764, 1491873283.970196, -0.122864, +1.041687, -0.123596, -3.433228, +7.141113, +1.495361
1491873283.970453, 1491873283.972749, -0.122864, +1.041687, -0.123596, -3.433228, +7.141113, +0.839233
1491873283.973007, 1491873283.975303, -0.122864, +1.041687, -0.123596, -3.204346, +4.913330, +0.839233
1491873283.975561, 1491873283.977860, -0.122864, +1.041687, -0.123596, -3.204346, +4.913330, +0.823975
1491873283.978119, 1491873283.980491, -0.090820, +1.029419, -0.145569, -2.777100, +3.555298, +0.823975
1491873283.980756, 1491873283.983184, -0.090820, +1.029419, -0.145569, -2.777100, +3.555298, -0.350952
1491873283.983450, 1491873283.985876, -0.090820, +1.029419, -0.145569, -2.944946, +2.075195, -0.350952
1491873283.986144, 1491873283.988574, -0.090820, +1.029419, -0.158020, -2.944946, +2.075195, -0.808716
1491873283.988839, 1491873283.991310, -0.082581, +1.070251, -0.158020, -3.128052, +0.854492, -0.808716
1491873283.991576, 1491873283.993998, -0.082581, +1.070251, -0.158020, -3.128052, +0.854492, -1.495361
1491873283.994264, 1491873283.996783, -0.082581, +1.070251, -0.158020, -3.402710, +0.152588, -1.495361
1491873283.997051, 1491873283.999473, -0.129456, +1.048462, -0.179810, -3.402710, -0.656128, -2.105713
1491873283.999739, 1491873284.002173, -0.116272, +1.048462, -0.179810, -3.784180, -0.656128, -2.105713
1491873284.002438, 1491873284.004863, -0.116272, +1.048462, -0.179810, -7.690430, -0.747681, -1.785278
1491873284.005127, 1491873284.007555, -0.116272, +1.048462, -0.179810, -4.318237, -0.747681, -1.785278
1491873284.007820, 1491873284.010302, -0.172668, +1.035278, -0.166077, -4.165649, -1.312256, -1.724243
1491873284.010558, 1491873284.012855, -0.172668, +1.035278, -0.166077, -4.165649, -1.312256, -1.724243
1491873284.013111, 1491873284.015410, -0.172668, +1.035278, -0.166077, -3.570557, -1.586914, -1.342773
1491873284.015666, 1491873284.017962, -0.172668, +1.035278, -0.166077, -3.570557, -1.586914, -1.342773
1491873284.018219, 1491873284.020659, -0.165527, +1.032532, -0.138062, -3.570557, -1.907349, -0.656128
1491873284.020917, 1491873284.023207, -0.165527, +1.032532, -0.138062, -3.219604, -1.907349, -0.656128
1491873284.023464, 1491873284.025763, -0.165527, +1.032532, -0.138062, -3.219604, -1.693726, -0.213623
1491873284.026019, 1491873284.028311, -0.165527, +1.032532, -0.138062, -3.295898, -1.693726, -0.213623
1491873284.028567, 1491873284.030938, -0.154724, +1.026306, -0.122498, -3.295898, -1.647949, +0.061035
1491873284.031204, 1491873284.033625, -0.154724, +1.026306, -0.122498, -2.746582, -1.647949, +0.061035
1491873284.033889, 1491873284.036310, -0.154724, +1.026306, -0.122498, -2.746582, -0.503540, +0.000000
1491873284.036576, 1491873284.038994, -0.154724, +1.026306, -0.122498, -2.487183, -0.503540, +0.000000
1491873284.039260, 1491873284.041694, -0.160950, +1.038574, -0.111145, -2.487183, +1.525879, +0.259399
1491873284.041960, 1491873284.044384, -0.160950, +1.038574, -0.111145, -1.815796, +1.525879, +0.259399
1491873284.044649, 1491873284.047071, -0.160950, +1.038574, -0.111145, -2.792358, +3.097534, +0.045776
1491873284.047337, 1491873284.049759, -0.160950, +1.038574, -0.101624, -2.792358, +3.097534, +0.045776
1491873284.050143, 1491873284.052564, -0.158936, +1.035278, -0.101624, -3.265381, +3.952026, -0.305176
1491873284.052829, 1491873284.055255, -0.158936, +1.035278, -0.101624, -3.265381, +3.952026, -0.305176
1491873284.055521, 1491873284.057941, -0.158936, +1.035278, -0.101624, -2.624512, +4.058838, -0.320435
1491873284.058205, 1491873284.060624, -0.129822, +1.033630, -0.115906, -2.624512, +4.058838, -0.320435
1491873284.060890, 1491873284.063313, -0.129822, +1.033630, -0.115906, -2.960205, +4.531860, -0.427246
1491873284.063579, 1491873284.066000, -0.129822, +1.033630, -0.115906, -2.960205, +4.531860, -0.427246
1491873284.066264, 1491873284.068681, -0.129822, +1.033630, -0.115906, -3.555298, +5.310059, -1.144409
1491873284.068946, 1491873284.071321, -0.106018, +1.047180, -0.143372, -3.555298, +5.310059, -1.144409
1491873284.071580, 1491873284.073873, -0.106018, +1.047180, -0.143372, -3.860474, +5.447388, -1.983643
1491873284.074131, 1491873284.076430, -0.106018, +1.047180, -0.143372, -3.860474, +5.447388, -1.983643
1491873284.076687, 1491873284.078982, -0.106018, +1.047180, -0.143372, -3.814697, +5.554199, -2.990723
1491873284.079239, 1491873284.081623, -0.080566, +1.034546, -0.182007, -3.814697, +5.554199, -2.990723
1491873284.081887, 1491873284.084313, -0.080566, +1.034546, -0.182007, -4.425049, +5.950928, -3.585815
1491873284.084578, 1491873284.087003, -0.080566, +1.034546, -0.182007, -4.425049, +5.950928, -3.585815
1491873284.087268, 1491873284.089687, -0.080566, +1.034546, -0.182007, -5.233765, +6.195068, -3.753662
1491873284.089949, 1491873284.092378, -0.097961, +1.010193, -0.205261, -5.233765, +6.195068, -3.753662
1491873284.092643, 1491873284.095065, -0.097961, +1.010193, -0.205261, -5.340576, +6.454468, -3.997803
1491873284.095328, 1491873284.097747, -0.097961, +1.010193, -0.205261, -5.340576, +6.454468, -3.997803
1491873284.098010, 1491873284.100480, -0.097961, +1.010193, -0.200134, -5.142212, +5.432129, -3.540039
1491873284.100745, 1491873284.103168, -0.188965, +1.008728, -0.200134, -5.142212, +5.432129, -3.540039
1491873284.103431, 1491873284.105857, -0.188965, +1.008728, -0.200134, -5.294800, +3.540039, -2.883911
1491873284.106121, 1491873284.108544, -0.188965, +1.008728, -0.200134, -5.294800, +3.540039, -2.883911
1491873284.108809, 1491873284.111236, -0.188965, +1.003784, -0.168823, -5.722046, +1.281738, -1.663208
1491873284.111499, 1491873284.113917, -0.210938, +1.003784, -0.168823, -5.722046, +1.281738, -1.663208
1491873284.114181, 1491873284.116604, -0.210938, +1.003784, -0.168823, -5.584717, -0.259399, -0.671387
1491873284.116868, 1491873284.119289, -0.210938, +1.003784, -0.168823, -5.584717, -0.259399, -0.671387
1491873284.119554, 1491873284.121899, -0.149048, +1.006897, -0.170837, -5.065918, -1.907349, +0.289917
1491873284.122157, 1491873284.124455, -0.149048, +1.006897, -0.170837, -5.065918, -1.907349, +0.289917
1491873284.124711, 1491873284.127014, -0.149048, +1.006897, -0.170837, -4.135132, -1.968384, +0.579834
1491873284.127271, 1491873284.129568, -0.149048, +1.006897, -0.170837, -4.135132, -1.968384, +0.579834
1491873284.129824, 1491873284.132125, -0.168823, +1.016785, -0.107849, -4.516602, -0.900269, +0.350952
1491873284.132384, 1491873284.134681, -0.168823, +1.016785, -0.107849, -4.516602, -0.900269, +0.350952
1491873284.134942, 1491873284.137231, -0.168823, +1.016785, -0.107849, -4.302979, -0.595093, +0.167847
1491873284.137491, 1491873284.139785, -0.168823, +1.016785, -0.107849, -4.302979, -0.595093, +0.167847
1491873284.140099, 1491873284.142530, -0.175415, +1.030884, -0.072693, -4.409790, -0.961304, +0.488281
1491873284.142796, 1491873284.145217, -0.175415, +1.030884, -0.072693, -4.409790, -0.961304, +0.488281
1491873284.145481, 1491873284.147900, -0.175415, +1.030884, -0.072693, -3.677368, -1.281738, +0.320435
1491873284.148164, 1491873284.150599, -0.175415, +1.030884, -0.072693, -3.677368, -1.281738, +0.320435
1491873284.150863, 1491873284.153287, -0.107117, +1.037476, -0.111511, -2.960205, -1.235962, -0.274658
1491873284.153554, 1491873284.155979, -0.107117, +1.037476, -0.111511, -2.960205, -1.235962, -0.274658
1491873284.156351, 1491873284.158776, -0.107117, +1.037476, -0.111511, -2.960205, -0.900269, -1.007080
1491873284.159042, 1491873284.161516, -0.107117, +1.037476, -0.138794, -2.960205, -0.900269, -1.007080
1491873284.161781, 1491873284.164201, -0.081116, +1.045166, -0.138794, -2.822876, +0.289917, -2.059937
1491873284.164464, 1491873284.166885, -0.081116, +1.045166, -0.138794, -2.822876, +0.289917, -2.059937
1491873284.167151, 1491873284.169569, -0.081116, +1.045166, -0.138794, -2.532959, +0.701904, -2.929688
1491873284.169834, 1491873284.172189, -0.122131, +1.045715, -0.154541, -2.532959, +0.701904, -2.929688
1491873284.172448, 1491873284.174743, -0.122131, +1.045715, -0.154541, -2.792358, +0.335693, -3.585815
1491873284.175001, 1491873284.177303, -0.122131, +1.045715, -0.154541, -2.792358, +0.335693, -3.585815
1491873284.177560, 1491873284.179858, -0.122131, +1.045715, -0.154541, -3.341675, -0.808716, -3.982544
1491873284.180109, 1491873284.182528, -0.139893, +1.043518, -0.172668, -3.341675, -0.808716, -3.982544
1491873284.182792, 1491873284.185210, -0.139893, +1.043518, -0.172668, -3.585815, -2.029419, -4.455566
1491873284.185475, 1491873284.187894, -0.139893, +1.043518, -0.172668, -3.585815, -2.029419, -4.455566
1491873284.188158, 1491873284.190588, -0.139893, +1.043518, -0.172668, -3.784180, -4.623413, -4.776001
1491873284.190851, 1491873284.193268, -0.149414, +1.028137, -0.201599, -3.784180, -4.623413, -4.776001
1491873284.193531, 1491873284.195953, -0.149414, +1.028137, -0.201599, -4.257202, -7.492065, -4.669189
1491873284.196216, 1491873284.198640, -0.149414, +1.028137, -0.201599, -4.257202, -7.492065, -4.669189
1491873284.198902, 1491873284.201334, -0.149414, +1.028137, -0.201599, -4.409790, -10.574341, -4.943848
1491873284.201601, 1491873284.204025, -0.144470, +1.017334, -0.216431, -4.409790, -10.574341, -4.699707
1491873284.204294, 1491873284.206717, -0.144470, +1.017334, -0.216431, -4.653931, -12.802124, -4.699707
1491873284.206985, 1491873284.209402, -0.144470, +1.017334, -0.216431, -4.653931, -12.802124, -4.257202
1491873284.209669, 1491873284.211998, -0.144470, +1.017334, -0.206360, -5.294800, -15.426636, -4.257202
1491873284.212258, 1491873284.214557, -0.162781, +1.013123, -0.206360, -5.294800, -15.426636, -4.592896
1491873284.214818, 1491873284.217118, -0.162781, +1.013123, -0.206360, -5.813599, -17.807007, -4.592896
1491873284.217379, 1491873284.219675, -0.162781, +1.013123, -0.206360, -5.813599, -17.807007, -5.050659
1491873284.219936, 1491873284.222369, -0.162781, +1.013123, -0.165161, -6.881714, -19.363403, -5.050659
1491873284.222637, 1491873284.225065, -0.159302, +1.010925, -0.165161, -6.881714, -19.363403, -5.157471
1491873284.225334, 1491873284.227756, -0.159302, +1.010925, -0.165161, -9.124756, -20.309448, -5.157471
1491873284.228024, 1491873284.230491, -0.159302, +1.010925, -0.165161, -9.124756, -20.309448, -4.638672
1491873284.230760, 1491873284.233179, -0.239319, +1.067688, -0.119202, -12.039185, -20.462036, -4.638672
1491873284.233452, 1491873284.235879, -0.239319, +1.067688, -0.119202, -12.039185, -16.555786, -4.501343
1491873284.236149, 1491873284.238575, -0.239319, +1.067688, -0.119202, -14.556885, -17.501831, -4.501343
1491873284.238846, 1491873284.241319, -0.239319, +1.067688, -0.119202, -14.556885, -16.860962, -5.477905
1491873284.241591, 1491873284.244018, -0.186768, +1.031616, -0.100159, -16.235352, -16.860962, -5.477905
1491873284.244289, 1491873284.246711, -0.186768, +1.031616, -0.100159, -16.235352, -17.700195, -6.500244
1491873284.246984, 1491873284.249405, -0.186768, +1.031616, -0.100159, -16.998291, -17.700195, -6.500244
1491873284.249676, 1491873284.252140, -0.186768, +1.031616, -0.100159, -17.150879, -16.494751, -8.056641
1491873284.252413, 1491873284.254835, -0.099792, +1.033997, -0.126892, -17.150879, -16.494751, -8.056641
1491873284.255108, 1491873284.257532, -0.099792, +1.033997, -0.126892, -17.807007, -15.930176, -10.757446
1491873284.257806, 1491873284.260333, -0.099792, +1.033997, -0.126892, -17.807007, -15.930176, -10.757446
1491873284.260709, 1491873284.263009, -0.099792, +1.066040, -0.143555, -19.119263, -15.991211, -13.549805
1491873284.263275, 1491873284.265573, -0.058960, +1.066040, -0.143555, -19.119263, -15.991211, -13.549805
1491873284.265840, 1491873284.268142, -0.058960, +1.066040, -0.143555, -20.065308, -16.372681, -16.769409
1491873284.268409, 1491873284.270718, -0.058960, +1.066040, -0.143555, -20.065308, -16.372681, -16.769409
1491873284.270985, 1491873284.273279, -0.058960, +1.051758, -0.166809, -21.453857, -16.601562, -20.690918
1491873284.273547, 1491873284.275842, -0.003662, +1.051758, -0.166809, -21.453857, -16.601562, -20.690918
1491873284.276109, 1491873284.278408, -0.003662, +1.051758, -0.166809, -21.942139, -16.677856, -25.375366
1491873284.278675, 1491873284.281042, -0.003662, +1.051758, -0.166809, -21.942139, -16.677856, -25.375366
1491873284.281316, 1491873284.283742, +0.043213, +1.051575, -0.179260, -22.918701, -16.662598, -29.312134
1491873284.284014, 1491873284.286437, +0.025452, +1.051575, -0.179260, -22.918701, -16.662598, -29.312134
1491873284.286712, 1491873284.289134, +0.025452, +1.051575, -0.179260, -24.505615, -17.532349, -33.203125
1491873284.289407, 1491873284.291830, +0.025452, +1.051575, -0.179260, -24.505615, -17.532349, -33.203125
1491873284.292103, 1491873284.294523, -0.052185, +1.060913, -0.183655, -25.924683, -19.592285, -37.414551
1491873284.294798, 1491873284.297218, -0.052185, +1.060913, -0.183655, -25.924683, -19.592285, -37.414551
1491873284.297492, 1491873284.299911, -0.052185, +1.060913, -0.183655, -26.596069, -22.415161, -41.229248
1491873284.300194, 1491873284.302618, -0.052185, +1.060913, -0.183655, -26.596069, -22.415161, -41.229248
1491873284.302892, 1491873284.305316, -0.058411, +1.077026, -0.132935, -26.489258, -25.573730, -44.509888
1491873284.305590, 1491873284.308012, -0.058411, +1.077026, -0.132935, -26.489258, -25.573730, -44.509888
1491873284.308286, 1491873284.310720, -0.058411, +1.077026, -0.132935, -27.206421, -27.893066, -47.515869
1491873284.310995, 1491873284.313417, -0.058411, +1.077026, -0.111877, -27.206421, -27.893066, -47.515869
1491873284.313690, 1491873284.316109, -0.051453, +1.062012, -0.111877, -27.664185, -28.427124, -50.292969
1491873284.316384, 1491873284.318810, -0.051453, +1.062012, -0.111877, -27.664185, -28.427124, -50.292969
1491873284.319083, 1491873284.321447, -0.051453, +1.062012, -0.111877, -28.244019, -29.327393, -52.917480
1491873284.321713, 1491873284.324006, -0.051453, +1.038574, -0.115356, -28.244019, -29.327393, -52.917480
1491873284.324272, 1491873284.326570, -0.114990, +1.038574, -0.115356, -27.679443, -30.609131, -55.084229
1491873284.326837, 1491873284.329133, -0.114990, +1.038574, -0.115356, -27.679443, -30.609131, -55.084229
1491873284.329402, 1491873284.331803, -0.114990, +1.038574, -0.115356, -26.031494, -33.493042, -57.662964
1491873284.332079, 1491873284.334498, -0.161865, +1.062195, -0.080933, -26.031494, -33.493042, -57.662964
1491873284.334771, 1491873284.337198, -0.178345, +1.062195, -0.080933, -25.527954, -36.926270, -59.249878
1491873284.337472, 1491873284.339898, -0.178345, +1.062195, -0.080933, -25.527954, -36.926270, -59.249878
1491873284.340181, 1491873284.342603, -0.178345, +1.062195, -0.080933, -24.765015, -39.840698, -60.379028
1491873284.342878, 1491873284.345303, -0.247375, +1.116760, -0.042297, -24.765015, -39.840698, -60.379028
1491873284.345580, 1491873284.348004, -0.247375, +1.116760, -0.042297, -24.307251, -43.579102, -61.996460
1491873284.348278, 1491873284.350716, -0.247375, +1.116760, -0.042297, -24.307251, -43.579102, -61.996460
1491873284.350989, 1491873284.353414, -0.247375, +1.116760, -0.042297, -23.025513, -45.669556, -63.934326
1491873284.353687, 1491873284.356114, -0.183655, +1.125732, -0.023071, -23.025513, -45.669556, -63.934326
1491873284.356388, 1491873284.358814, -0.183655, +1.125732, -0.023071, -22.125244, -46.432495, -65.628052
1491873284.359088, 1491873284.361523, -0.183655, +1.125732, -0.023071, -22.125244, -46.432495, -69.534302
1491873284.361797, 1491873284.364217, -0.183655, +1.125732, -0.047974, -23.223877, -47.622681, -66.940308
1491873284.364596, 1491873284.367022, -0.212585, +1.221130, -0.047974, -23.223877, -47.622681, -68.511963
1491873284.367297, 1491873284.369722, -0.212585, +1.221130, -0.047974, -25.421143, -46.463013, -68.511963
1491873284.369995, 1491873284.372299, -0.212585, +1.221130, -0.047974, -25.421143, -46.463013, -71.807861
1491873284.372566, 1491873284.374867, -0.025085, +1.118591, -0.060242, -28.701782, -42.770386, -71.807861
1491873284.375132, 1491873284.377429, -0.025085, +1.118591, -0.060242, -28.701782, -42.770386, -75.714111
1491873284.377696, 1491873284.379995, -0.025085, +1.118591, -0.060242, -32.485962, -35.507202, -75.805664
1491873284.380338, 1491873284.382759, -0.025085, +1.118591, -0.060242, -32.485962, -35.507202, -77.117920
1491873284.383032, 1491873284.385451, -0.094299, +0.870300, -0.211670, -33.752441, -26.123047, -77.117920
1491873284.385726, 1491873284.388149, -0.094299, +0.870300, -0.211670, -33.752441, -26.123047, -76.248169
1491873284.388426, 1491873284.390919, -0.094299, +0.870300, -0.211670, -34.469604, -21.545410, -76.248169
1491873284.391194, 1491873284.393612, -0.094299, +0.870300, -0.211670, -34.469604, -21.545410, -74.172974
1491873284.393889, 1491873284.396313, -0.605347, +0.875244, -0.111145, -34.423828, -20.690918, -74.172974
1491873284.396587, 1491873284.399011, -0.605347, +0.875244, -0.111145, -34.423828, -24.597168, -72.235107
1491873284.399285, 1491873284.401720, -0.605347, +0.875244, -0.111145, -32.546997, -24.322510, -72.235107
1491873284.401994, 1491873284.404420, -0.605347, +0.875244, -0.017395, -32.546997, -27.694702, -68.145752
1491873284.404694, 1491873284.407115, -0.556458, +0.834229, -0.003662, -31.585693, -27.694702, -68.145752
1491873284.407390, 1491873284.409811, -0.556458, +0.834229, -0.003662, -27.679443, -28.060913, -63.049316
1491873284.410097, 1491873284.412391, -0.556458, +0.834229, -0.003662, -31.112671, -28.060913, -63.049316
1491873284.412659, 1491873284.414954, -0.556458, +0.927979, +0.086792, -35.018921, -25.268555, -58.898926
1491873284.415220, 1491873284.417519, -0.431396, +0.914429, +0.086792, -31.341553, -25.268555, -58.898926
1491873284.417786, 1491873284.420147, -0.431396, +0.914429, +0.086792, -31.341553, -22.842407, -55.999756
1491873284.420559, 1491873284.422863, -0.431396, +0.914429, +0.086792, -31.875610, -22.842407, -55.999756
1491873284.423130, 1491873284.425424, -0.431396, +1.023193, +0.109863, -31.875610, -21.392822, -53.298950
1491873284.425690, 1491873284.427987, -0.439819, +1.023193, +0.109863, -32.272339, -21.392822, -53.298950
1491873284.428253, 1491873284.430661, -0.439819, +1.023193, +0.109863, -32.272339, -19.805908, -51.223755
1491873284.430933, 1491873284.433320, -0.439819, +1.023193, +0.109863, -32.989502, -19.805908, -51.223755
1491873284.433592, 1491873284.436007, -0.369141, +1.171143, +0.061523, -32.989502, -17.868042, -49.896240
1491873284.436281, 1491873284.438723, -0.369141, +1.171143, +0.061523, -33.020020, -17.868042, -49.896240
1491873284.438997, 1491873284.441422, -0.369141, +1.171143, +0.061523, -33.020020, -16.906738, -49.377441
1491873284.441696, 1491873284.444121, -0.369141, +1.171143, +0.061523, -31.753540, -16.906738, -49.377441
1491873284.444394, 1491873284.446815, -0.280884, +1.316345, -0.007507, -29.983521, -12.207031, -48.934937
1491873284.447088, 1491873284.449512, -0.280884, +1.316345, -0.007507, -29.983521, -12.207031, -48.934937
1491873284.449789, 1491873284.452217, -0.280884, +1.316345, -0.007507, -30.395508, -6.195068, -50.231934
1491873284.452490, 1491873284.454913, -0.280884, +1.316345, -0.007507, -30.395508, -6.195068, -50.231934
1491873284.455185, 1491873284.457610, -0.017944, +1.333374, +0.021790, -34.286499, -2.075195, -53.298950
1491873284.457880, 1491873284.460305, -0.017944, +1.333374, +0.021790, -34.286499, -2.075195, -53.298950
1491873284.460568, 1491873284.462867, -0.017944, +1.333374, +0.021790, -37.185669, +4.547119, -56.915283
1491873284.463130, 1491873284.465425, -0.017944, +1.333374, -0.146301, -37.185669, +4.547119, -56.915283
1491873284.473285, 1491873284.475736, -0.066284, +0.887146, -0.159668, -34.179688, +16.754150, -59.814453
1491873284.476012, 1491873284.478537, -0.712463, +0.654968, -0.159668, -32.211304, +15.029907, -57.464600
1491873284.478813, 1491873284.481289, -0.712463, +0.654968, -0.159668, -32.211304, +15.029907, -57.464600
1491873284.481564, 1491873284.483989, -0.712463, +0.654968, -0.159668, -29.037476, +8.773804, -52.505493
1491873284.484261, 1491873284.486688, -0.806213, +0.428284, -0.049805, -29.037476, +8.773804, -52.505493
1491873284.486962, 1491873284.489391, -0.818665, +0.428284, -0.049805, -26.290894, +2.349854, -45.425415
1491873284.489662, 1491873284.492097, -0.818665, +0.428284, -0.049805, -26.290894, +2.349854, -45.425415
1491873284.492370, 1491873284.494800, -0.818665, +0.428284, -0.049805, -23.910522, -3.189087, -38.253784
1491873284.495070, 1491873284.497495, -0.809509, +0.561768, +0.093750, -23.910522, -3.189087, -38.253784
1491873284.497767, 1491873284.500199, -0.809509, +0.561768, +0.093750, -20.782471, -7.858276, -31.051636
1491873284.500465, 1491873284.502763, -0.809509, +0.561768, +0.093750, -20.782471, -7.858276, -31.051636
1491873284.503027, 1491873284.505324, -0.809509, +0.561768, +0.093750, -19.042969, -10.375977, -23.620605
1491873284.505592, 1491873284.507888, -0.641968, +0.721252, +0.232727, -19.042969, -10.375977, -23.620605
1491873284.508155, 1491873284.510496, -0.641968, +0.721252, +0.232727, -16.601562, -10.147095, -17.333984
1491873284.510762, 1491873284.513056, -0.641968, +0.721252, +0.232727, -16.601562, -10.147095, -17.333984
1491873284.513322, 1491873284.515627, -0.641968, +0.721252, +0.232727, -13.137817, -10.757446, -12.619019
1491873284.515893, 1491873284.518191, -0.600769, +0.981445, +0.251221, -13.137817, -10.757446, -12.619019
1491873284.518457, 1491873284.520756, -0.600769, +0.981445, +0.251221, -9.857178, -13.336182, -7.751465
1491873284.521018, 1491873284.523325, -0.600769, +0.981445, +0.251221, -9.857178, -13.336182, -7.751465
1491873284.523588, 1491873284.525887, -0.600769, +0.981445, +0.251221, -6.637573, -16.021729, -4.592896
1491873284.526147, 1491873284.528443, -0.398254, +1.340698, +0.194092, -6.637573, -16.021729, -4.592896
1491873284.528703, 1491873284.531161, -0.398254, +1.340698, +0.194092, -4.150391, -16.387939, -3.173828
1491873284.531421, 1491873284.533724, -0.398254, +1.340698, +0.194092, -4.150391, -16.387939, -3.173828
1491873284.533983, 1491873284.536288, -0.398254, +1.340698, +0.006592, -2.227783, -14.587402, -3.662109
1491873284.536548, 1491873284.538846, -0.216248, +1.439392, +0.031494, -2.227783, -14.587402, -3.662109
1491873284.539105, 1491873284.541616, -0.216248, +1.439392, +0.031494, -0.640869, -11.550903, -3.814697
1491873284.541886, 1491873284.544312, -0.216248, +1.439392, +0.031494, -0.640869, -11.550903, -3.814697
1491873284.544581, 1491873284.547008, -0.216248, +1.392517, -0.064636, +2.517700, -8.636475, -3.524780
1491873284.547273, 1491873284.549700, -0.357056, +1.382263, -0.064636, +2.517700, -8.636475, -3.524780
1491873284.549964, 1491873284.552285, -0.357056, +1.382263, -0.064636, +6.958008, -5.157471, -1.327515
1491873284.552542, 1491873284.554842, -0.357056, +1.382263, -0.064636, +6.958008, -5.157471, -1.327515
1491873284.555097, 1491873284.557390, -0.357056, +1.135803, -0.055115, +13.320923, -1.571655, +5.538940
1491873284.557651, 1491873284.559945, -0.575500, +1.135803, -0.055115, +13.320923, -1.571655, +5.538940
1491873284.560213, 1491873284.562641, -0.575500, +1.135803, -0.055115, +19.927979, +2.426147, +13.717651
1491873284.562915, 1491873284.565344, -0.575500, +1.135803, -0.055115, +19.927979, +2.426147, +13.717651
1491873284.565613, 1491873284.568034, -0.883484, +0.999390, +0.240051, +26.657104, +7.797241, +22.109985
1491873284.568307, 1491873284.570738, -0.883484, +0.999390, +0.240051, +26.657104, +7.797241, +22.109985
1491873284.571009, 1491873284.573440, -0.883484, +0.999390, +0.240051, +32.989502, +10.040283, +32.943726
1491873284.573714, 1491873284.576144, -0.883484, +0.999390, +0.240051, +32.989502, +10.040283, +32.943726
1491873284.576535, 1491873284.578963, -0.969910, +1.241638, +0.472778, +40.039062, +12.634277, +45.486450
1491873284.579237, 1491873284.581712, -0.969910, +1.241638, +0.472778, +40.039062, +12.634277, +45.486450
1491873284.581985, 1491873284.584408, -0.969910, +1.241638, +0.472778, +44.723511, +14.511108, +57.159424
1491873284.584682, 1491873284.587108, -0.969910, +1.241638, +0.519653, +44.723511, +14.511108, +57.159424
1491873284.587380, 1491873284.589808, -0.588318, +1.623596, +0.554626, +48.294067, +16.067505, +68.801880
1491873284.590092, 1491873284.592388, -0.588318, +1.623596, +0.554626, +48.294067, +16.067505, +68.801880
1491873284.592655, 1491873284.594954, -0.588318, +1.623596, +0.554626, +49.499512, +20.034790, +79.727173
1491873284.595220, 1491873284.597516, -0.588318, +1.623596, +0.481018, +49.499512, +20.034790, +79.727173
1491873284.597782, 1491873284.600123, -0.274658, +1.958862, +0.481018, +50.109863, +25.909424, +87.615967
1491873284.600397, 1491873284.602820, -0.274658, +1.958862, +0.481018, +50.109863, +25.909424, +87.615967
1491873284.603094, 1491873284.605518, -0.274658, +1.958862, +0.481018, +50.582886, +28.579712, +92.193604
1491873284.605791, 1491873284.608219, -0.274658, +2.275818, +0.279236, +50.582886, +28.579712, +92.193604
1491873284.608492, 1491873284.610924, -0.021423, +2.275818, +0.279236, +51.406860, +27.999878, +94.131470
1491873284.611201, 1491873284.613623, -0.021423, +2.275818, +0.279236, +51.406860, +27.999878, +94.131470
1491873284.613897, 1491873284.616326, -0.021423, +2.275818, +0.279236, +51.605225, +24.703979, +94.940186
1491873284.616599, 1491873284.619024, +0.089172, +2.450317, -0.027466, +51.605225, +24.703979, +94.940186
1491873284.619297, 1491873284.621744, +0.089172, +2.450317, -0.027466, +52.474976, +18.890381, +96.572876
1491873284.622017, 1491873284.624433, +0.089172, +2.450317, -0.027466, +52.474976, +18.890381, +96.572876
1491873284.624709, 1491873284.627135, +0.089172, +2.450317, -0.027466, +55.831909, +9.078979, +102.401733
1491873284.627405, 1491873284.629837, +0.320251, +2.458374, -0.364929, +55.831909, +9.078979, +110.214233
1491873284.630117, 1491873284.632538, +0.320251, +2.458374, -0.364929, +56.884766, -6.179810, +110.610962
1491873284.632811, 1491873284.635235, +0.320251, +2.458374, -0.364929, +56.884766, -6.179810, +121.520996
1491873284.635505, 1491873284.637930, +0.320251, +2.458374, -0.739929, +61.264038, -22.277832, +121.520996
1491873284.638205, 1491873284.640616, +0.540161, +2.179321, -0.723816, +61.264038, -22.277832, +133.865356
1491873284.640884, 1491873284.643188, +0.540161, +2.179321, -0.723816, +66.253662, -31.921387, +133.865356
1491873284.643454, 1491873284.645753, +0.540161, +2.179321, -0.723816, +66.253662, -31.921387, +142.623901
1491873284.646018, 1491873284.648313, +0.540161, +2.179321, -0.679688, +69.458008, -32.684326, +142.623901
1491873284.648579, 1491873284.650896, +0.481201, +1.724304, -0.679688, +69.458008, -32.684326, +142.623901
1491873284.651164, 1491873284.653461, +0.481201, +1.724304, -0.679688, +64.376831, -35.491943, +140.731812
1491873284.653727, 1491873284.656018, +0.481201, +1.724304, -0.679688, +64.376831, -35.491943, +140.731812
1491873284.656285, 1491873284.658580, +0.481201, +1.349304, -0.437073, +61.553955, -46.127319, +127.914429
1491873284.658847, 1491873284.661209, +0.025635, +1.318359, -0.437073, +61.553955, -46.127319, +127.914429
1491873284.661483, 1491873284.663911, +0.025635, +1.318359, -0.437073, +59.143066, -49.499512, +114.181519
1491873284.664187, 1491873284.666611, +0.025635, +1.318359, -0.437073, +59.143066, -49.499512, +106.369019
1491873284.666886, 1491873284.669310, -0.396240, +0.801453, -0.113342, +47.897339, -41.290283, +108.352661
1491873284.669585, 1491873284.672019, -0.408325, +0.801453, -0.113342, +47.897339, -41.290283, +104.446411
1491873284.672293, 1491873284.674715, -0.408325, +0.801453, -0.113342, +39.321899, -42.510986, +105.102539
1491873284.674989, 1491873284.677412, -0.408325, +0.801453, -0.113342, +39.321899, -42.510986, +91.690063
1491873284.677687, 1491873284.680122, -0.910767, +0.667786, +0.184570, +36.392212, -44.677734, +91.690063
1491873284.680512, 1491873284.682936, -0.910767, +0.667786, +0.184570, +36.392212, -32.958984, +70.861816
1491873284.683210, 1491873284.685635, -0.910767, +0.667786, +0.184570, +27.526855, -34.164429, +70.861816
1491873284.685909, 1491873284.688333, -0.910767, +0.667786, +0.184570, +27.526855, -28.671265, +57.388306
1491873284.688608, 1491873284.691033, -1.734741, +0.718140, +0.088257, +13.153076, -28.671265, +57.388306
1491873284.691308, 1491873284.693733, -1.734741, +0.718140, +0.088257, +13.153076, -38.635254, +52.520752
1491873284.694007, 1491873284.696433, -1.734741, +0.718140, +0.088257, +3.417969, -38.635254, +52.520752
1491873284.696705, 1491873284.699128, -1.734741, +0.718140, -0.346436, +3.417969, -55.145264, +49.819946
1491873284.699397, 1491873284.701739, -1.576721, +0.197937, -0.346436, +1.220703, -55.145264, +49.819946
1491873284.702002, 1491873284.704301, -1.576721, +0.197937, -0.346436, +9.033203, -68.908691, +39.520264
1491873284.704564, 1491873284.706865, -1.576721, +0.197937, -0.346436, +8.514404, -68.908691, +39.520264
1491873284.707129, 1491873284.709423, -1.576721, +0.302673, -0.416382, +8.514404, -73.791504, +29.296875
1491873284.709686, 1491873284.712129, -0.831482, +0.302673, -0.416382, +15.701294, -73.791504, +29.296875
1491873284.712404, 1491873284.714838, -0.831482, +0.302673, -0.416382, +15.701294, -76.293945, +16.693115
1491873284.715112, 1491873284.717533, -0.831482, +0.302673, -0.416382, +18.646240, -76.293945, +16.693115
1491873284.717807, 1491873284.720278, -0.973022, +0.310547, -0.334717, +19.592285, -77.499390, +5.386353
1491873284.720550, 1491873284.722976, -0.973022, +0.310547, -0.334717, +19.592285, -77.499390, +5.386353
1491873284.723247, 1491873284.725676, -0.973022, +0.310547, -0.334717, +13.748169, -75.256348, +8.270264
1491873284.725948, 1491873284.728372, -0.973022, +0.310547, -0.334717, +13.748169, -75.256348, +8.270264
1491873284.728645, 1491873284.731115, -0.488159, +0.110596, -0.186584, +11.367798, -79.101562, +16.708374
1491873284.731391, 1491873284.733815, -0.488159, +0.110596, -0.186584, +11.367798, -79.101562, +16.708374
1491873284.734089, 1491873284.736516, -0.488159, +0.110596, -0.186584, +15.106201, -86.242676, +22.918701
1491873284.736789, 1491873284.739210, -0.488159, +0.110596, -0.186584, +15.106201, -86.242676, +22.918701
1491873284.739483, 1491873284.741915, -0.134949, -0.028748, -0.068298, +19.409180, -87.921143, +28.076172
1491873284.742189, 1491873284.744619, -0.134949, -0.028748, -0.068298, +19.409180, -87.921143, +28.076172
1491873284.744895, 1491873284.747319, -0.134949, -0.028748, -0.068298, +20.584106, -81.481934, +32.989502
1491873284.747594, 1491873284.750022, -0.134949, -0.028748, +0.049622, +20.584106, -81.481934, +32.989502
1491873284.750338, 1491873284.752644, -0.084595, -0.022888, +0.049622, +21.682739, -69.305420, +38.314819
1491873284.752911, 1491873284.755208, -0.084595, -0.022888, +0.049622, +21.682739, -69.305420, +38.314819
1491873284.755473, 1491873284.757777, -0.084595, -0.022888, +0.049622, +22.857666, -57.205200, +42.694092
1491873284.758042, 1491873284.760375, -0.084595, -0.059875, +0.005310, +22.857666, -57.205200, +42.694092
1491873284.760651, 1491873284.763076, -0.154175, -0.059875, +0.005310, +24.078369, -46.539307, +46.585083
1491873284.763350, 1491873284.765781, -0.154175, -0.059875, +0.005310, +24.078369, -46.539307, +46.585083
1491873284.766056, 1491873284.768479, -0.154175, -0.059875, +0.005310, +25.360107, -35.980225, +49.774170
1491873284.768755, 1491873284.771188, -0.076538, -0.034607, +0.022522, +25.360107, -35.980225, +49.774170
1491873284.771461, 1491873284.773884, -0.076538, -0.034607, +0.022522, +25.329590, -25.238037, +52.871704
1491873284.774158, 1491873284.776581, -0.076538, -0.034607, +0.022522, +25.329590, -25.238037, +52.871704
1491873284.776855, 1491873284.779282, -0.076538, -0.034607, +0.022522, +25.619507, -14.190674, +54.077148
1491873284.779555, 1491873284.781983, +0.008057, +0.014465, +0.161316, +25.619507, -14.190674, +54.077148
1491873284.782259, 1491873284.784680, +0.008057, +0.014465, +0.161316, +25.207520, -2.655029, +53.359985
1491873284.785061, 1491873284.787488, +0.008057, +0.014465, +0.161316, +25.207520, -2.655029, +53.359985
1491873284.787761, 1491873284.790189, +0.008057, +0.014465, +0.314758, +23.452759, +9.582520, +51.788330
1491873284.790462, 1491873284.792892, -0.031311, +0.087891, +0.314758, +23.452759, +9.582520, +47.882080
1491873284.793167, 1491873284.795588, -0.031311, +0.087891, +0.314758, +21.606445, +21.667480, +48.828125
1491873284.795863, 1491873284.798284, -0.031311, +0.087891, +0.314758, +21.606445, +21.667480, +44.967651
1491873284.798556, 1491873284.800957, -0.031311, +0.138977, +0.354126, +19.836426, +32.348633, +44.967651
1491873284.801223, 1491873284.803521, -0.143921, +0.138977, +0.354126, +19.836426, +32.348633, +40.359497
1491873284.803787, 1491873284.806086, -0.143921, +0.138977, +0.354126, +16.921997, +40.191650, +40.359497
1491873284.806351, 1491873284.808656, -0.143921, +0.138977, +0.354126, +16.921997, +40.191650, +36.453247
1491873284.808922, 1491873284.811346, -0.143921, +0.147766, +0.296997, +12.573242, +44.479370, +36.224365
1491873284.811620, 1491873284.814054, -0.145203, +0.147766, +0.296997, +12.573242, +44.479370, +32.318115
1491873284.814327, 1491873284.816751, -0.145203, +0.147766, +0.296997, +7.873535, +49.270630, +31.509399
1491873284.817021, 1491873284.819444, -0.145203, +0.147766, +0.296997, +7.873535, +49.270630, +25.115967
1491873284.819715, 1491873284.822153, -0.054565, +0.102905, +0.093750, +4.943848, +57.937622, +25.115967
1491873284.822425, 1491873284.824851, -0.054565, +0.102905, +0.093750, +4.943848, +57.937622, +14.831543
1491873284.825126, 1491873284.827546, -0.054565, +0.102905, +0.093750, +4.119873, +62.530518, +14.831543
1491873284.827818, 1491873284.830288, -0.054565, +0.102905, +0.093750, +4.119873, +54.718018, +1.571655
1491873284.830558, 1491873284.832980, +0.030762, +0.086426, -0.242981, +3.143311, +54.916382, +1.571655
1491873284.833248, 1491873284.835675, +0.030762, +0.086426, -0.242981, +3.143311, +47.912598, -7.186890
1491873284.835943, 1491873284.838369, +0.030762, +0.086426, -0.242981, +1.266479, +47.912598, -7.186890
1491873284.838639, 1491873284.841101, +0.030762, +0.086426, +0.060974, -2.639771, +56.304932, -13.336182
1491873284.841373, 1491873284.843802, +0.347351, +0.068115, +0.060974, -0.823975, +56.304932, -13.336182
1491873284.844074, 1491873284.846502, +0.347351, +0.068115, +0.060974, -1.251221, +74.157715, -20.172119
1491873284.846773, 1491873284.849192, +0.347351, +0.068115, +0.060974, -1.251221, +74.157715, -20.172119
1491873284.849463, 1491873284.851814, +0.019226, +0.231628, +0.389465, -3.768921, +85.250854, -30.303955
1491873284.852079, 1491873284.854371, +0.034424, +0.231628, +0.389465, -3.768921, +85.250854, -30.303955
1491873284.854635, 1491873284.856935, +0.034424, +0.231628, +0.389465, -12.481689, +87.860107, -42.327881
1491873284.857201, 1491873284.859501, +0.034424, +0.231628, +0.389465, -12.481689, +87.860107, -42.327881
1491873284.859767, 1491873284.862188, -0.750366, +0.204712, +0.467834, -24.200439, +79.605103, -51.284790
1491873284.862463, 1491873284.864893, -0.750366, +0.204712, +0.467834, -24.612427, +79.605103, -51.284790
1491873284.865169, 1491873284.867587, -0.750366, +0.204712, +0.467834, -30.883789, +59.036255, -56.213379
1491873284.867860, 1491873284.870293, -0.750366, +0.204712, +0.467834, -30.883789, +59.036255, -56.213379
1491873284.870568, 1491873284.872998, -0.709351, +0.100159, +0.291870, -31.951904, +41.366577, -58.868408
1491873284.873272, 1491873284.875694, -0.709351, +0.100159, +0.291870, -31.951904, +41.366577, -58.868408
1491873284.875968, 1491873284.878394, -0.709351, +0.100159, +0.291870, -28.671265, +35.110474, -61.874390
1491873284.878670, 1491873284.881102, -0.709351, +0.100159, +0.291870, -28.671265, +35.110474, -61.874390
1491873284.881376, 1491873284.883804, -0.200500, +0.094116, -0.071228, -23.620605, +38.452148, -66.253662
1491873284.884079, 1491873284.886513, -0.200500, +0.094116, -0.071228, -23.620605, +38.452148, -66.253662
1491873284.886788, 1491873284.889214, -0.200500, +0.094116, -0.071228, -21.820068, +50.323486, -70.404053
1491873284.889596, 1491873284.892039, -0.200500, -0.187134, +0.032043, -21.820068, +50.323486, -70.404053
1491873284.892314, 1491873284.894741, -0.422424, -0.162231, +0.032043, -24.230957, +66.040039, -77.758789
1491873284.895017, 1491873284.897438, -0.422424, -0.162231, +0.032043, -24.230957, +66.040039, -77.758789
1491873284.897712, 1491873284.900149, -0.422424, -0.162231, +0.032043, -24.612427, +61.279297, -96.405029
1491873284.900417, 1491873284.902716, -3.375549, -0.139893, +0.871399, -24.612427, +61.279297, -96.405029
1491873284.902982, 1491873284.905276, -3.375549, -0.139893, +0.871399, -54.077148, +43.884277, -100.555420
1491873284.905542, 1491873284.907844, -3.375549, -0.139893, +0.871399, -54.077148, +43.884277, -100.555420
1491873284.908110, 1491873284.910411, -3.375549, -0.139893, +0.871399, -70.404053, +65.322876, -140.457153
1491873284.910678, 1491873284.912972, -4.812012, +2.591125, +0.852539, -70.404053, +65.322876, -140.457153
1491873284.913237, 1491873284.915531, -4.812012, +2.591125, +0.852539, -50.430298, +69.000244, -118.972778
1491873284.915797, 1491873284.918094, -4.812012, +2.591125, +0.852539, -50.430298, +69.000244, -118.972778
1491873284.918358, 1491873284.920732, -4.812012, +2.591125, +0.852539, -30.014038, -31.875610, -73.272705
1491873284.921008, 1491873284.923429, +0.774536, +2.685059, -0.697632, -30.014038, -31.875610, -73.272705
1491873284.923703, 1491873284.926131, +0.774536, +2.685059, -0.697632, -20.904541, -36.880493, -54.977417
1491873284.926405, 1491873284.928835, +0.774536, +2.685059, -0.697632, -20.904541, -36.880493, -54.977417
1491873284.929107, 1491873284.931546, +0.774536, +2.685059, -0.697632, +22.109985, +41.091919, -7.537842
1491873284.931817, 1491873284.934235, +4.132324, +2.607971, -3.198486, +22.109985, +41.091919, -7.537842
1491873284.934506, 1491873284.936935, +4.132324, +2.607971, -3.198486, +22.232056, +26.107788, -26.535034
1491873284.937205, 1491873284.939622, +4.132324, +2.607971, -3.198486, +22.232056, +26.107788, -26.535034
1491873284.939891, 1491873284.942326, +4.132324, +2.607971, -1.555481, -5.020142, +17.929077, -36.483765
1491873284.942593, 1491873284.945017, +0.256897, +1.433350, -1.555481, -5.020142, +17.929077, -36.483765
1491873284.945285, 1491873284.947704, +0.256897, +1.433350, -1.555481, -19.439697, +80.703735, -25.375366
1491873284.947979, 1491873284.950412, +0.256897, +1.433350, -1.555481, -19.439697, +80.703735, -25.375366
1491873284.950683, 1491873284.953106, +0.256897, +0.797241, -0.240417, -22.827148, +75.393677, -2.410889
1491873284.953376, 1491873284.955800, -0.849792, +0.797241, -0.240417, -22.827148, +75.393677, -2.410889
1491873284.956071, 1491873284.958495, -0.849792, +0.797241, -0.240417, -14.816284, +5.798340, +15.335083
1491873284.958766, 1491873284.961151, -0.849792, +0.797241, -0.240417, -14.816284, +5.798340, +23.147583
1491873284.961414, 1491873284.963719, -0.466553, -0.004211, -0.433960, -14.434814, -20.965576, +22.125244
1491873284.963986, 1491873284.966280, -0.466553, -0.004211, -0.433960, -14.434814, -20.965576, +22.125244
1491873284.966547, 1491873284.968845, -0.466553, -0.004211, -0.433960, -12.939453, -14.785767, +40.039062
1491873284.969113, 1491873284.971534, -0.466553, -0.004211, -0.433960, -12.939453, -14.785767, +40.039062
1491873284.971808, 1491873284.974229, +1.066406, +1.464844, -0.691589, -0.534058, -10.162354, +40.313721
1491873284.974501, 1491873284.976922, +1.066406, +1.464844, -0.691589, -0.534058, -10.162354, -6.561279
1491873284.977189, 1491873284.979610, +1.066406, +1.464844, -0.691589, -5.569458, +2.075195, -4.699707
1491873284.979872, 1491873284.982300, +1.066406, +1.464844, -0.691589, -5.569458, +2.075195, -28.137207
1491873284.982567, 1491873284.984992, +2.403992, +5.950562, +0.738281, -23.529053, +34.164429, -30.151367
1491873284.985266, 1491873284.987690, +2.403992, +5.950562, +0.738281, -23.529053, +34.164429, -88.897705
1491873284.987963, 1491873284.990392, +2.403992, +5.950562, +0.738281, -14.648438, +24.154663, -88.897705
1491873284.990772, 1491873284.993200, +2.403992, +5.950562, -0.407227, -14.648438, +47.592163, -98.129272
1491873284.993473, 1491873284.995894, +2.321045, +4.248047, -0.407227, -75.881958, +50.415039, -98.129272
1491873284.996167, 1491873284.998585, +2.321045, +4.248047, -0.407227, -75.881958, +120.727539, -82.687378
1491873284.998859, 1491873285.001321, +2.321045, +4.248047, -0.407227, -94.680786, +117.584229, -82.687378
1491873285.001594, 1491873285.004015, -1.335205, -1.155396, +1.017700, -94.680786, +92.300415, -79.803467
1491873285.004288, 1491873285.006718, -1.336304, -1.155396, +1.017700, -44.784546, +92.300415, -79.803467
1491873285.006987, 1491873285.009411, -1.336304, -1.155396, +1.017700, +2.090454, +7.385254, -80.429077
1491873285.009675, 1491873285.012007, -1.336304, -1.155396, +1.017700, +2.182007, +7.385254, -80.429077
1491873285.012265, 1491873285.014564, -1.140564, +0.518372, +0.391296, +6.088257, -19.714355, -68.939209
1491873285.014829, 1491873285.017129, -1.140564, +0.518372, +0.391296, +6.072998, -19.714355, -68.939209
1491873285.017393, 1491873285.019688, -1.140564, +0.518372, +0.391296, +6.072998, -20.370483, -54.702759
1491873285.019949, 1491873285.022254, -1.140564, +0.518372, +0.391296, +0.106812, -20.370483, -54.702759
1491873285.022518, 1491873285.024812, -0.462158, +0.889893, -0.051086, +0.106812, -8.651733, -41.488647
1491873285.025074, 1491873285.027374, -0.462158, +0.889893, -0.051086, -0.366211, -9.552002, -41.488647
1491873285.027635, 1491873285.029929, -0.462158, +0.889893, -0.051086, -0.366211, -9.552002, -28.381348
1491873285.030208, 1491873285.032629, -0.462158, +0.889893, -0.051086, +5.737305, -3.829956, -28.381348
1491873285.032897, 1491873285.035325, -0.811707, +0.971924, -0.123047, +5.737305, -7.736206, -15.594482
1491873285.035594, 1491873285.038015, -0.811707, +0.971924, -0.123047, +8.224487, -4.318237, -15.594482
1491873285.038285, 1491873285.040716, -0.811707, +0.971924, -0.123047, +8.224487, -4.318237, -1.403809
1491873285.040983, 1491873285.043413, -0.811707, +0.971924, -0.123047, +10.772705, -4.959106, -1.403809
1491873285.043684, 1491873285.046111, -1.176270, +0.872498, -0.195007, +10.772705, -11.688232, +15.487671
1491873285.046384, 1491873285.048813, -1.176270, +0.872498, -0.195007, +15.716553, -11.688232, +15.487671
1491873285.049085, 1491873285.051517, -1.176270, +0.872498, -0.195007, +15.716553, -23.193359, +31.494141
1491873285.051790, 1491873285.054211, -1.176270, +0.778748, -0.046875, +19.042969, -23.193359, +31.494141
1491873285.054485, 1491873285.056913, -0.875977, +0.772705, -0.046875, +22.155762, -29.891968, +43.807983
1491873285.057189, 1491873285.059612, -0.875977, +0.772705, -0.046875, +22.155762, -29.891968, +43.807983
1491873285.059886, 1491873285.062205, -0.875977, +0.772705, -0.046875, +23.147583, -31.295776, +51.223755
1491873285.062473, 1491873285.064772, -0.641602, +0.967896, +0.041016, +23.147583, -31.295776, +51.223755
1491873285.065038, 1491873285.067334, -0.627319, +0.967896, +0.041016, +21.057129, -32.043457, +54.000854
1491873285.067600, 1491873285.069906, -0.627319, +0.967896, +0.041016, +21.057129, -32.043457, +54.000854
1491873285.070180, 1491873285.072596, -0.627319, +0.967896, +0.041016, +17.150879, -31.250000, +54.336548
1491873285.072871, 1491873285.075296, -0.242249, +1.126099, +0.054016, +19.210815, -31.250000, +54.336548
1491873285.075569, 1491873285.077994, -0.242249, +1.126099, +0.054016, +17.059326, -26.489258, +52.139282
1491873285.078268, 1491873285.080704, -0.242249, +1.126099, +0.054016, +17.059326, -26.489258, +52.139282
1491873285.080978, 1491873285.083399, -0.242249, +1.126099, +0.054016, +16.479492, -20.202637, +47.637939
1491873285.083673, 1491873285.086099, +0.019043, +1.082153, -0.075989, +16.479492, -20.202637, +47.637939
1491873285.086372, 1491873285.088796, +0.019043, +1.082153, -0.075989, +15.090942, -14.801025, +42.587280
1491873285.089069, 1491873285.091510, +0.019043, +1.082153, -0.075989, +15.090942, -14.801025, +42.587280
1491873285.091783, 1491873285.094205, +0.019043, +1.082153, -0.075989, +13.275146, -9.735107, +37.902832
1491873285.094584, 1491873285.097008, +0.083496, +1.142578, -0.188232, +13.275146, -9.735107, +37.902832
1491873285.097280, 1491873285.099707, +0.083496, +1.142578, -0.188232, +10.864258, -4.821777, +33.248901
1491873285.099977, 1491873285.102294, +0.083496, +1.142578, -0.188232, +10.864258, -4.821777, +33.248901
1491873285.102557, 1491873285.104851, +0.083496, +1.189453, -0.273376, +8.666992, -0.778198, +28.427124
1491873285.105115, 1491873285.107412, +0.122498, +1.187439, -0.273376, +8.666992, -0.778198, +28.427124
1491873285.107677, 1491873285.109970, +0.122498, +1.187439, -0.273376, +6.164551, +3.051758, +23.239136
1491873285.110239, 1491873285.112666, +0.122498, +1.187439, -0.273376, +6.164551, +3.051758, +23.239136
1491873285.112933, 1491873285.115354, +0.122498, +1.047546, -0.287292, +4.867554, +7.720947, +18.173218
1491873285.115621, 1491873285.118043, +0.082764, +1.047546, -0.287292, +4.867554, +7.720947, +18.173218
1491873285.118311, 1491873285.120750, +0.082764, +1.047546, -0.287292, +2.593994, +10.864258, +14.144897
1491873285.121020, 1491873285.123447, +0.082764, +1.047546, -0.287292, +2.593994, +10.864258, +14.144897
1491873285.123718, 1491873285.126141, -0.133850, +0.916992, -0.238037, +0.762939, +9.872437, +10.208130
1491873285.126410, 1491873285.128833, -0.133850, +0.916992, -0.238037, +0.762939, +9.872437, +10.208130
1491873285.129102, 1491873285.131569, -0.133850, +0.916992, -0.238037, -0.488281, +5.203247, +7.293701
1491873285.131833, 1491873285.134260, -0.133850, +0.916992, -0.238037, -0.488281, +5.203247, +7.293701
1491873285.134525, 1491873285.136946, -0.275208, +0.886780, -0.200134, -1.159668, -0.381470, +5.569458
1491873285.137212, 1491873285.139632, -0.275208, +0.886780, -0.200134, -1.159668, -0.381470, +5.569458
1491873285.139898, 1491873285.142217, -0.275208, +0.886780, -0.200134, -2.471924, -5.798340, +4.470825
1491873285.142474, 1491873285.144769, -0.275208, +0.886780, -0.200134, -2.471924, -5.798340, +4.470825
1491873285.145026, 1491873285.147318, -0.363098, +0.860596, -0.141174, -3.967285, -11.123657, +3.494263
1491873285.147579, 1491873285.149879, -0.363098, +0.860596, -0.141174, -3.967285, -11.123657, +3.494263
1491873285.150106, 1491873285.152401, -0.363098, +0.860596, -0.141174, -4.760742, -15.930176, +3.005981
1491873285.152663, 1491873285.154965, -0.363098, +0.860596, -0.141174, -4.760742, -15.930176, +3.005981
1491873285.155225, 1491873285.157521, -0.367859, +0.825256, -0.121399, -5.355835, -18.722534, +2.243042
1491873285.157783, 1491873285.160121, -0.367859, +0.825256, -0.121399, -5.355835, -18.722534, +2.243042
1491873285.160391, 1491873285.162817, -0.367859, +0.825256, -0.121399, -5.889893, -19.866943, +1.586914
1491873285.163086, 1491873285.165507, -0.367859, +0.825256, -0.109680, -5.889893, -19.866943, +1.586914
1491873285.165776, 1491873285.168198, -0.273376, +0.836060, -0.109680, -6.225586, -18.859863, +0.656128
1491873285.168469, 1491873285.170907, -0.273376, +0.836060, -0.109680, -6.225586, -18.859863, +0.656128
1491873285.171176, 1491873285.173597, -0.273376, +0.836060, -0.109680, -8.071899, -15.991211, -0.686646
1491873285.173865, 1491873285.176293, -0.273376, +0.873047, -0.178528, -8.071899, -15.991211, -0.686646
1491873285.176562, 1491873285.178982, -0.145020, +0.873047, -0.178528, -9.445190, -11.627197, -1.388550
1491873285.179250, 1491873285.181715, -0.145020, +0.873047, -0.178528, -9.445190, -11.627197, -1.388550
1491873285.181985, 1491873285.184411, -0.145020, +0.873047, -0.178528, -10.238647, -7.003784, -2.166748
1491873285.184680, 1491873285.187103, -0.237671, +0.887695, -0.243896, -10.238647, -7.003784, -2.166748
1491873285.187370, 1491873285.189791, -0.237671, +0.887695, -0.243896, -10.284424, -2.807617, -2.944946
1491873285.190070, 1491873285.192375, -0.237671, +0.887695, -0.243896, -10.284424, -2.807617, -2.944946
1491873285.192635, 1491873285.194931, -0.237671, +0.887695, -0.243896, -9.643555, -0.991821, -3.189087
1491873285.195189, 1491873285.197486, -0.351013, +0.892273, -0.196289, -9.643555, -0.991821, -3.189087
1491873285.197743, 1491873285.200038, -0.351013, +0.892273, -0.196289, -9.216309, -0.930786, -2.777100
1491873285.200457, 1491873285.202880, -0.351013, +0.892273, -0.196289, -9.216309, -0.930786, -2.777100
1491873285.203147, 1491873285.205577, -0.351013, +0.892273, -0.196289, -8.956909, -1.525879, -1.800537
1491873285.205842, 1491873285.208264, -0.439819, +0.876526, -0.090271, -8.956909, -1.525879, -1.800537
1491873285.208529, 1491873285.210961, -0.439819, +0.876526, -0.090271, -8.956909, -4.257202, -0.732422
1491873285.211227, 1491873285.213651, -0.439819, +0.876526, -0.090271, -8.956909, -4.257202, +3.173828
1491873285.213917, 1491873285.216338, -0.439819, +0.876526, -0.028931, -7.369995, -7.934570, +0.564575
1491873285.216604, 1491873285.219029, -0.422791, +0.879822, -0.028931, -7.369995, -7.934570, +0.564575
1491873285.219294, 1491873285.221727, -0.422791, +0.879822, -0.028931, -5.691528, -11.260986, +1.968384
1491873285.221996, 1491873285.224416, -0.422791, +0.879822, -0.028931, -5.691528, -11.260986, +3.387451
1491873285.224686, 1491873285.227110, -0.282166, +0.912415, +0.084045, -4.364014, -13.336182, +3.387451
1491873285.227379, 1491873285.229799, -0.321533, +0.912415, +0.084045, -4.364014, -13.336182, +4.608154
1491873285.230075, 1491873285.232371, -0.321533, +0.912415, +0.084045, -2.563477, -13.717651, +4.608154
1491873285.232631, 1491873285.234931, -0.321533, +0.912415, +0.084045, -2.563477, -13.717651, +5.264282
1491873285.235193, 1491873285.237490, -0.309082, +0.922668, +0.164246, -1.388550, -12.924194, +5.264282
1491873285.237754, 1491873285.240149, -0.309082, +0.922668, +0.164246, -1.388550, -12.924194, +5.264282
1491873285.240419, 1491873285.242838, -0.309082, +0.922668, +0.164246, -0.762939, -11.474609, +5.630493
1491873285.243107, 1491873285.245532, -0.309082, +0.922668, +0.164246, -0.762939, -11.474609, +6.454468
1491873285.245799, 1491873285.248228, -0.255066, +0.950684, +0.139709, -0.106812, -8.956909, +6.454468
1491873285.248492, 1491873285.250938, -0.255066, +0.950684, +0.139709, -0.106812, -5.050659, +6.439209
1491873285.251205, 1491873285.253627, -0.255066, +0.950684, +0.139709, +0.534058, -5.142212, +6.439209
1491873285.253893, 1491873285.256322, -0.255066, +0.950684, +0.139709, +0.534058, -1.235962, +6.622314
1491873285.256586, 1491873285.259010, -0.160034, +1.003235, +0.012817, +0.579834, -0.564575, +6.622314
1491873285.259276, 1491873285.261716, -0.160034, +1.003235, +0.012817, +0.579834, +4.013062, +5.630493
1491873285.261981, 1491873285.264402, -0.160034, +1.003235, +0.012817, +0.625610, +4.013062, +5.630493
1491873285.264666, 1491873285.267086, -0.160034, +1.003235, -0.151611, -3.280640, +8.880615, +4.470825
1491873285.267352, 1491873285.269773, -0.141541, +1.077209, -0.151611, -0.015259, +8.880615, +4.470825
1491873285.270081, 1491873285.272503, -0.141541, +1.077209, -0.151611, -0.015259, +11.718750, +3.616333
1491873285.272773, 1491873285.275194, -0.141541, +1.077209, -0.151611, -0.259399, +11.718750, +3.616333
1491873285.275462, 1491873285.277888, -0.188416, +1.132324, -0.229614, -0.640869, +12.390137, +2.700806
1491873285.278156, 1491873285.280573, -0.203613, +1.132324, -0.229614, -0.640869, +12.390137, +2.700806
1491873285.280835, 1491873285.283136, -0.203613, +1.132324, -0.229614, -1.052856, +12.115479, +2.334595
1491873285.283396, 1491873285.285695, -0.203613, +1.132324, -0.229614, -1.052856, +12.115479, +2.334595
1491873285.285955, 1491873285.288254, -0.269714, +1.097168, -0.229248, -0.930786, +11.230469, +2.090454
1491873285.288515, 1491873285.290925, -0.269714, +1.097168, -0.229248, -0.930786, +11.230469, +2.090454
1491873285.291194, 1491873285.293619, -0.269714, +1.097168, -0.229248, -1.403809, +9.750366, +2.410889
1491873285.293883, 1491873285.296311, -0.269714, +1.097168, -0.229248, -1.403809, +9.750366, +2.410889
1491873285.296576, 1491873285.299004, -0.299011, +1.070801, -0.156372, -1.113892, +7.156372, +2.868652
1491873285.299267, 1491873285.301700, -0.299011, +1.070801, -0.156372, -1.113892, +7.156372, +2.868652
1491873285.301962, 1491873285.304388, -0.299011, +1.070801, -0.156372, -0.823975, +5.325317, +3.890991
1491873285.304758, 1491873285.307183, -0.299011, +1.070801, -0.156372, -0.823975, +5.325317, +3.890991
1491873285.307447, 1491873285.309873, -0.282166, +1.046631, -0.107849, -0.488281, +4.776001, +4.516602
1491873285.310147, 1491873285.312574, -0.282166, +1.046631, -0.107849, -0.488281, +4.776001, +4.516602
1491873285.312839, 1491873285.315261, -0.282166, +1.046631, -0.107849, -0.305176, +4.760742, +5.096436
1491873285.315526, 1491873285.317951, -0.282166, +1.046631, -0.057861, -0.305176, +4.760742, +5.096436
1491873285.318217, 1491873285.320692, -0.249756, +1.038757, -0.057861, -0.411987, +5.416870, +5.950928
1491873285.320956, 1491873285.323382, -0.249756, +1.038757, -0.057861, -0.411987, +5.416870, +5.950928
1491873285.323646, 1491873285.326075, -0.249756, +1.038757, -0.057861, -0.930786, +4.531860, +6.851196
1491873285.326339, 1491873285.328760, -0.249390, +1.060913, -0.087891, -0.930786, +4.531860, +6.851196
1491873285.329025, 1491873285.331422, -0.249390, +1.060913, -0.087891, -0.656128, +3.189087, +7.781982
1491873285.331679, 1491873285.333980, -0.249390, +1.060913, -0.087891, -0.656128, +3.189087, +7.781982
1491873285.334235, 1491873285.336530, -0.249390, +1.060913, -0.087891, +0.106812, +2.243042, +8.605957
1491873285.336790, 1491873285.339083, -0.258728, +1.064209, -0.070312, +0.106812, +2.243042, +8.605957
1491873285.339344, 1491873285.341736, -0.258728, +1.064209, -0.070312, +1.403809, +1.327515, +8.819580
1491873285.342001, 1491873285.344409, -0.258728, +1.064209, -0.070312, +1.403809, +1.327515, +8.819580
1491873285.344673, 1491873285.347086, -0.258728, +1.064209, -0.070312, +1.724243, +0.503540, +8.499146
1491873285.347352, 1491873285.349760, -0.233093, +1.093506, -0.006775, +1.724243, +0.503540, +8.499146
1491873285.350026, 1491873285.352478, -0.233093, +1.093506, -0.006775, +1.785278, -0.152588, +8.926392
1491873285.352743, 1491873285.355153, -0.233093, +1.093506, -0.006775, +1.785278, -0.152588, +8.926392
1491873285.355420, 1491873285.357828, -0.233093, +1.093506, -0.006775, +2.883911, -0.335693, +8.697510
1491873285.358094, 1491873285.360513, -0.168457, +1.103943, -0.017761, +2.883911, -0.335693, +8.697510
1491873285.360779, 1491873285.363188, -0.168457, +1.103943, -0.017761, +3.738403, +0.396729, +7.843018
1491873285.363452, 1491873285.365860, -0.168457, +1.103943, -0.017761, +3.738403, +0.396729, +7.843018
1491873285.366124, 1491873285.368540, -0.168457, +1.103943, -0.049622, +3.753662, +1.831055, +6.576538
1491873285.368804, 1491873285.371213, -0.175964, +1.065674, -0.049622, +3.753662, +1.831055, +6.576538
1491873285.371476, 1491873285.373888, -0.175964, +1.065674, -0.049622, +4.257202, +3.433228, +5.828857
1491873285.374153, 1491873285.376566, -0.175964, +1.065674, -0.049622, +4.257202, +3.433228, +5.828857
1491873285.376830, 1491873285.379238, -0.222839, +1.025757, -0.068115, +4.730225, +4.470825, +5.889893
1491873285.379501, 1491873285.381841, -0.232178, +1.025757, -0.068115, +4.730225, +4.470825, +5.889893
1491873285.382117, 1491873285.386247, -0.232178, +1.025757, -0.068115, +5.432129, +5.203247, +6.103516
1491873285.386517, 1491873285.388814, -0.232178, +1.025757, -0.076355, +6.393433, +5.325317, +6.896973
1491873285.389070, 1491873285.391429, -0.285461, +0.988403, -0.076355, +6.393433, +5.325317, +6.896973
1491873285.391686, 1491873285.393977, -0.285461, +0.988403, -0.076355, +7.125854, +4.302979, +7.614136
1491873285.394235, 1491873285.396528, -0.285461, +0.988403, -0.076355, +7.125854, +4.302979, +7.614136
1491873285.396785, 1491873285.399087, -0.285461, +0.941528, -0.102356, +7.690430, +3.768921, +8.453369
1491873285.399346, 1491873285.401655, -0.295898, +0.979980, -0.102356, +7.690430, +3.768921, +8.453369
1491873285.401914, 1491873285.404206, -0.295898, +0.979980, -0.102356, +8.529663, +2.883911, +9.277344
1491873285.404464, 1491873285.406763, -0.295898, +0.979980, -0.102356, +8.529663, +2.883911, +9.277344
1491873285.407021, 1491873285.409320, -0.295898, +0.988953, -0.108582, +9.338379, +1.800537, +10.772705
1491873285.409582, 1491873285.411892, -0.284180, +0.988953, -0.108582, +9.338379, +1.800537, +10.772705
1491873285.412291, 1491873285.414587, -0.284180, +0.988953, -0.108582, +9.674072, +1.190186, +11.550903
1491873285.414852, 1491873285.417141, -0.284180, +0.988953, -0.108582, +9.674072, +1.190186, +11.550903
1491873285.417403, 1491873285.419701, -0.237305, +1.004700, -0.117371, +9.674072, +0.381470, +11.657715
1491873285.419963, 1491873285.422385, -0.279236, +1.004700, -0.117371, +9.475708, +0.381470, +11.657715
1491873285.422650, 1491873285.424945, -0.279236, +1.004700, -0.117371, +9.475708, -0.411987, +12.313843
1491873285.425207, 1491873285.427509, -0.279236, +1.004700, -0.117371, +9.216309, -0.411987, +12.313843
1491873285.427771, 1491873285.430136, -0.254700, +1.017151, -0.115356, +9.216309, -0.518799, +12.908936
1491873285.430399, 1491873285.432696, -0.254700, +1.017151, -0.115356, +8.789062, -0.518799, +12.908936
1491873285.432958, 1491873285.435256, -0.254700, +1.017151, -0.115356, +8.789062, -0.518799, +13.183594
1491873285.435518, 1491873285.437810, -0.254700, +1.017151, -0.115356, +8.270264, -0.518799, +13.183594
1491873285.438072, 1491873285.440452, -0.236755, +1.023376, -0.115906, +8.270264, -0.518799, +13.000488
