timestamp_before, timestamp_after, accel_x, accel_y, accel_z, gyro_x, gyro_y, gyro_z
1491873297.158754, 1491873297.161135, -0.067017, +1.302246, -0.130371, -1.449585, +0.061035, +1.495361
1491873297.161482, 1491873297.163777, -0.088440, +1.302246, -0.130371, -1.449585, +0.061035, +1.495361
1491873297.164038, 1491873297.166336, -0.088440, +1.302246, -0.130371, -1.647949, -0.961304, +1.358032
1491873297.166594, 1491873297.168972, -0.088440, +1.302246, -0.130371, -1.647949, -0.961304, +1.358032
1491873297.169231, 1491873297.171539, -0.088440, +0.996643, -0.141357, -1.296997, -0.350952, +1.327515
1491873297.171798, 1491873297.174099, -0.068665, +0.996643, -0.141357, -1.296997, -0.350952, +1.327515
1491873297.174357, 1491873297.176656, -0.068665, +0.996643, -0.141357, -1.510620, -0.274658, +1.708984
1491873297.176914, 1491873297.179318, -0.068665, +0.996643, -0.141357, -1.510620, -0.274658, +1.708984
1491873297.179576, 1491873297.182003, -0.069580, +1.021729, -0.145386, -1.327515, -0.518799, +1.693726
1491873297.182262, 1491873297.184557, -0.069580, +1.021729, -0.145386, -1.327515, -0.518799, +1.693726
1491873297.184816, 1491873297.187111, -0.069580, +1.021729, -0.145386, -1.296997, -0.442505, +1.541138
1491873297.187368, 1491873297.189666, -0.069580, +1.021729, -0.145386, -1.296997, -0.442505, +1.541138
1491873297.189924, 1491873297.192361, -0.071045, +1.023376, -0.138245, -1.724243, -0.488281, +2.059937
1491873297.192619, 1491873297.194925, -0.071045, +1.023376, -0.138245, -1.724243, -0.488281, +2.059937
1491873297.195182, 1491873297.197479, -0.071045, +1.023376, -0.138245, -1.556396, -0.183105, +2.456665
1491873297.197736, 1491873297.200037, -0.071045, +1.023376, -0.138245, -1.556396, -0.183105, +2.456665
1491873297.200354, 1491873297.202778, -0.069946, +1.025574, -0.142456, -1.510620, -0.045776, +2.044678
1491873297.203044, 1491873297.205469, -0.069946, +1.025574, -0.142456, -1.510620, -0.045776, +2.044678
1491873297.205733, 1491873297.208156, -0.069946, +1.025574, -0.142456, -1.373291, -0.137329, +1.754761
1491873297.208420, 1491873297.210891, -0.069946, +1.025574, -0.142456, -1.373291, -0.137329, +1.754761
1491873297.211155, 1491873297.213577, -0.067383, +1.020447, -0.152527, -1.495361, -0.228882, +1.983643
1491873297.213841, 1491873297.216262, -0.067383, +1.020447, -0.152527, -1.495361, -0.228882, +1.983643
1491873297.216529, 1491873297.218951, -0.067383, +1.020447, -0.152527, -1.586914, +0.091553, +2.075195
1491873297.219216, 1491873297.221610, -0.067383, +1.020447, -0.141541, -1.586914, +0.091553, +2.075195
1491873297.221868, 1491873297.224167, -0.069946, +1.025208, -0.141541, -1.876831, +0.030518, +2.197266
1491873297.224425, 1491873297.226722, -0.069946, +1.025208, -0.141541, -1.876831, +0.030518, +2.197266
1491873297.226979, 1491873297.229280, -0.069946, +1.025208, -0.141541, -1.602173, -0.106812, +1.998901
1491873297.229539, 1491873297.232017, -0.069946, +1.025208, -0.133484, -1.602173, -0.106812, +1.998901
1491873297.232276, 1491873297.234581, -0.063354, +1.015137, -0.133484, -1.556396, -0.045776, +1.708984
1491873297.234837, 1491873297.237140, -0.063354, +1.015137, -0.133484, -1.556396, -0.045776, +1.708984
1491873297.237397, 1491873297.239698, -0.063354, +1.015137, -0.133484, -1.678467, +0.610352, +1.785278
1491873297.239955, 1491873297.242407, -0.063354, +1.013672, -0.125427, -1.678467, +0.610352, +1.785278
1491873297.242674, 1491873297.245095, -0.059143, +1.013672, -0.125427, -1.754761, +1.327515, +1.312256
1491873297.245359, 1491873297.247836, -0.059143, +1.013672, -0.125427, -1.754761, +1.327515, +1.312256
1491873297.248101, 1491873297.250541, -0.059143, +1.013672, -0.125427, -1.617432, +1.708984, +1.434326
1491873297.250805, 1491873297.253225, -0.066467, +1.023193, -0.143921, -1.617432, +1.708984, +1.434326
1491873297.253489, 1491873297.255919, -0.066467, +1.023193, -0.143921, -1.510620, +2.014160, +1.831055
1491873297.256182, 1491873297.258609, -0.066467, +1.023193, -0.143921, -1.510620, +2.014160, +1.831055
1491873297.258874, 1491873297.261308, -0.066467, +1.023193, -0.143921, -1.663208, +2.120972, +1.876831
1491873297.261721, 1491873297.264150, -0.076355, +1.031799, -0.143921, -1.663208, +2.120972, +1.876831
1491873297.264414, 1491873297.266836, -0.076355, +1.031799, -0.143921, -1.602173, +2.365112, +2.288818
1491873297.267098, 1491873297.269515, -0.076355, +1.031799, -0.143921, -1.602173, +2.365112, +2.288818
1491873297.269778, 1491873297.272216, -0.076355, +1.031799, -0.097046, -2.441406, +2.639771, +2.471924
1491873297.272481, 1491873297.274902, -0.091553, +1.035645, -0.134766, -2.441406, +2.639771, +2.914429
1491873297.275168, 1491873297.277592, -0.091553, +1.035645, -0.134766, -2.120972, +2.349854, +2.914429
1491873297.277855, 1491873297.280275, -0.091553, +1.035645, -0.134766, -2.120972, +2.349854, +3.128052
1491873297.280532, 1491873297.282834, -0.091553, +0.988770, -0.139893, -1.785278, +1.831055, +3.128052
1491873297.283092, 1491873297.285392, -0.076904, +1.026123, -0.139893, -1.785278, +1.831055, +3.540039
1491873297.285648, 1491873297.287947, -0.076904, +1.026123, -0.139893, -2.090454, +1.403809, +3.540039
1491873297.288202, 1491873297.290610, -0.076904, +1.026123, -0.139893, -2.090454, +1.403809, +3.463745
1491873297.290869, 1491873297.293173, -0.076904, +1.022278, -0.123962, -2.258301, +1.113892, +3.463745
1491873297.293431, 1491873297.295727, -0.083862, +1.022278, -0.123962, -2.258301, +1.113892, +3.463745
1491873297.295986, 1491873297.298287, -0.083862, +1.022278, -0.123962, -2.822876, +0.305176, +3.555298
1491873297.298543, 1491873297.301024, -0.083862, +1.022278, -0.123962, -2.822876, +0.305176, +3.555298
1491873297.301289, 1491873297.303713, -0.092834, +1.009460, -0.129456, -2.334595, -0.534058, +3.784180
1491873297.303978, 1491873297.306406, -0.092834, +1.009460, -0.129456, -2.334595, -0.534058, +3.692627
1491873297.306672, 1491873297.309097, -0.092834, +1.009460, -0.129456, -2.365112, -0.946045, +3.692627
1491873297.309364, 1491873297.311801, -0.092834, +1.009460, -0.129456, -2.365112, -0.946045, +3.631592
1491873297.312066, 1491873297.314496, -0.074707, +1.018616, -0.129456, -2.807617, -1.739502, +3.631592
1491873297.314759, 1491873297.317184, -0.074707, +1.018616, -0.129456, -2.807617, -1.739502, +3.372192
1491873297.317448, 1491873297.319878, -0.074707, +1.018616, -0.129456, -2.685547, -1.998901, +3.372192
1491873297.320152, 1491873297.322581, -0.074707, +1.018616, -0.129456, -2.685547, -1.998901, +3.021240
1491873297.322845, 1491873297.325265, -0.050537, +1.022278, -0.161682, -2.716064, -1.846313, +3.021240
1491873297.325528, 1491873297.327955, -0.050537, +1.022278, -0.161682, -2.716064, -1.113892, +2.731323
1491873297.328220, 1491873297.330675, -0.050537, +1.022278, -0.161682, -2.731323, -1.113892, +2.731323
1491873297.330931, 1491873297.333403, -0.050537, +1.022278, -0.147217, -2.731323, -0.686646, +2.593994
1491873297.333661, 1491873297.335965, -0.047791, +1.037842, -0.147217, -3.219604, -0.686646, +2.593994
1491873297.336223, 1491873297.338519, -0.047791, +1.037842, -0.147217, -3.219604, -0.762939, +1.754761
1491873297.338776, 1491873297.341268, -0.047791, +1.037842, -0.147217, -3.723145, -0.762939, +1.754761
1491873297.341531, 1491873297.343925, -0.047791, +1.042786, -0.130920, -7.629395, -0.885010, +1.190186
1491873297.344189, 1491873297.346696, -0.060425, +1.042786, -0.130920, -4.577637, -0.885010, +1.190186
1491873297.346961, 1491873297.349349, -0.060425, +1.042786, -0.130920, -4.959106, -0.854492, +0.534058
1491873297.350412, 1491873297.352709, -0.060425, +1.042786, -0.130920, -4.959106, -0.854492, +0.534058
1491873297.352968, 1491873297.355267, -0.057312, +1.038574, -0.144470, -5.523682, -0.686646, -0.152588
1491873297.355525, 1491873297.357824, -0.057312, +1.038574, -0.144470, -5.523682, -0.686646, -0.152588
1491873297.358082, 1491873297.360406, -0.057312, +1.038574, -0.144470, -5.874634, -0.900269, -0.579834
1491873297.360673, 1491873297.363099, -0.057312, +1.038574, -0.144470, -5.874634, -0.900269, -0.579834
1491873297.363365, 1491873297.365790, -0.046326, +1.038208, -0.164246, -5.661011, -1.266479, -1.327515
1491873297.366054, 1491873297.368479, -0.046326, +1.038208, -0.164246, -5.661011, -1.266479, -1.327515
1491873297.368858, 1491873297.371287, -0.046326, +1.038208, -0.164246, -6.362915, -1.785278, -2.182007
1491873297.371551, 1491873297.373977, -0.046326, +1.038208, -0.151428, -6.362915, -1.785278, -2.182007
1491873297.374241, 1491873297.376662, -0.049072, +1.047729, -0.151428, -7.110596, -2.258301, -2.853394
1491873297.376925, 1491873297.379346, -0.049072, +1.047729, -0.151428, -7.110596, -2.258301, -2.853394
1491873297.379611, 1491873297.381949, -0.049072, +1.047729, -0.151428, -7.705688, -2.563477, -4.394531
1491873297.382206, 1491873297.384506, -0.049072, +1.045166, -0.151794, -7.705688, -2.563477, -4.394531
1491873297.384763, 1491873297.387067, -0.052551, +1.045166, -0.151794, -8.453369, -3.402710, -5.508423
1491873297.387324, 1491873297.389622, -0.052551, +1.045166, -0.151794, -8.453369, -3.402710, -5.508423
1491873297.389878, 1491873297.392225, -0.052551, +1.045166, -0.151794, -9.246826, -3.936768, -6.439209
1491873297.392481, 1491873297.394783, -0.005676, +1.038940, -0.149048, -9.246826, -3.936768, -6.439209
1491873297.395040, 1491873297.397337, -0.042664, +1.038940, -0.149048, -10.025024, -4.516602, -7.736206
1491873297.397599, 1491873297.399898, -0.042664, +1.038940, -0.149048, -10.025024, -4.516602, -7.736206
1491873297.400295, 1491873297.402606, -0.042664, +1.038940, -0.149048, -11.138916, -4.760742, -8.987427
1491873297.402869, 1491873297.405166, -0.034058, +1.033630, -0.160950, -11.138916, -4.760742, -8.987427
1491873297.405429, 1491873297.407728, -0.034058, +1.033630, -0.160950, -12.023926, -4.440308, -9.994507
1491873297.407991, 1491873297.410429, -0.034058, +1.033630, -0.160950, -12.023926, -4.440308, -9.994507
1491873297.410701, 1491873297.413128, -0.034058, +1.033630, -0.160950, -13.031006, -4.608154, -11.428833
1491873297.413399, 1491873297.415821, -0.036621, +1.031433, -0.164612, -13.031006, -4.608154, -11.428833
1491873297.416092, 1491873297.418513, -0.036621, +1.031433, -0.164612, -14.160156, -4.486084, -12.908936
1491873297.418783, 1491873297.421212, -0.036621, +1.031433, -0.164612, -14.160156, -4.486084, -12.908936
1491873297.421484, 1491873297.423912, -0.036621, +1.031433, -0.164612, -15.472412, -5.264282, -14.587402
1491873297.424183, 1491873297.426609, -0.013733, +1.033264, -0.172485, -15.472412, -5.264282, -14.587402
1491873297.426879, 1491873297.429305, -0.013733, +1.033264, -0.172485, -16.540527, -5.859375, -16.189575
1491873297.429575, 1491873297.431917, -0.013733, +1.033264, -0.172485, -16.540527, -5.859375, -16.189575
1491873297.432181, 1491873297.434479, -0.013733, +1.033264, -0.219360, -17.227173, -5.340576, -17.929077
1491873297.434742, 1491873297.437040, +0.037903, +1.033447, -0.190247, -17.227173, -5.340576, -17.929077
1491873297.437304, 1491873297.439600, +0.037903, +1.033447, -0.190247, -17.639160, -4.226685, -19.729614
1491873297.439863, 1491873297.442208, +0.037903, +1.033447, -0.190247, -17.639160, -4.226685, -19.729614
1491873297.442471, 1491873297.444767, +0.037903, +1.033447, -0.208740, -19.363403, -3.784180, -21.530151
1491873297.445034, 1491873297.447335, -0.046143, +1.029236, -0.208740, -19.363403, -3.784180, -21.530151
1491873297.447601, 1491873297.449900, -0.046143, +1.029236, -0.208740, -20.172119, -4.104614, -23.208618
1491873297.450267, 1491873297.452577, -0.046143, +1.029236, -0.208740, -20.172119, -4.104614, -23.208618
1491873297.452841, 1491873297.455140, -0.046143, +1.029236, -0.153259, -20.950317, -4.989624, -24.185181
1491873297.455404, 1491873297.457701, -0.065552, +1.037842, -0.153259, -20.950317, -4.989624, -24.185181
1491873297.457964, 1491873297.460330, -0.065552, +1.037842, -0.153259, -22.140503, -6.332397, -24.795532
1491873297.460602, 1491873297.463024, -0.065552, +1.037842, -0.153259, -22.140503, -6.332397, -24.795532
1491873297.463296, 1491873297.465723, -0.065552, +1.029053, -0.153992, -22.338867, -7.324219, -25.344849
1491873297.466113, 1491873297.468542, -0.081299, +1.029053, -0.153992, -22.338867, -7.324219, -25.344849
1491873297.468814, 1491873297.471293, -0.081299, +1.029053, -0.153992, -22.338867, -7.690430, -26.504517
1491873297.471667, 1491873297.474092, -0.081299, +1.029053, -0.153992, -22.338867, -7.690430, -26.504517
1491873297.474364, 1491873297.476790, -0.085876, +1.040039, -0.129272, -22.201538, -8.102417, -27.114868
1491873297.477062, 1491873297.479478, -0.085876, +1.040039, -0.129272, -22.201538, -8.102417, -27.114868
1491873297.479750, 1491873297.482084, -0.085876, +1.040039, -0.129272, -22.140503, -8.712769, -27.786255
1491873297.482350, 1491873297.484646, -0.085876, +1.040039, -0.129272, -22.140503, -8.712769, -27.786255
1491873297.484911, 1491873297.487211, -0.096680, +1.046265, -0.109314, -22.262573, -8.575439, -28.442383
1491873297.487476, 1491873297.489786, -0.096680, +1.046265, -0.109314, -22.262573, -8.575439, -28.442383
1491873297.490085, 1491873297.492380, -0.096680, +1.046265, -0.109314, -22.476196, -8.804321, -29.251099
1491873297.492646, 1491873297.494937, -0.096680, +1.046265, -0.109314, -22.476196, -8.804321, -29.251099
1491873297.495200, 1491873297.497498, -0.093201, +1.044434, -0.104553, -21.774292, -8.941650, -30.090332
1491873297.497764, 1491873297.500115, -0.093201, +1.044434, -0.104553, -21.774292, -8.941650, -30.090332
1491873297.500379, 1491873297.502678, -0.093201, +1.044434, -0.104553, -21.881104, -8.407593, -30.975342
1491873297.502942, 1491873297.505243, -0.093201, +1.044434, -0.104553, -21.881104, -8.407593, -30.975342
1491873297.505508, 1491873297.507805, -0.087158, +1.025574, -0.090454, -22.399902, -7.583618, -31.799316
1491873297.508067, 1491873297.510374, -0.087158, +1.025574, -0.090454, -22.399902, -7.583618, -31.799316
1491873297.510637, 1491873297.512935, -0.087158, +1.025574, -0.090454, -22.140503, -6.378174, -32.592773
1491873297.513197, 1491873297.515493, -0.087158, +1.025574, -0.090454, -22.140503, -6.378174, -32.592773
1491873297.515756, 1491873297.518058, -0.092102, +1.002686, -0.087341, -21.820068, -5.035400, -33.538818
1491873297.518321, 1491873297.520776, -0.092102, +1.002686, -0.087341, -21.820068, -5.035400, -33.538818
1491873297.521040, 1491873297.523344, -0.092102, +1.002686, -0.087341, -21.133423, -4.241943, -33.996582
1491873297.523609, 1491873297.525906, -0.092102, +1.002686, -0.087341, -21.133423, -4.241943, -33.996582
1491873297.526169, 1491873297.528469, -0.122131, +0.994446, -0.069763, -20.492554, -3.814697, -34.698486
1491873297.528733, 1491873297.531194, -0.122131, +0.994446, -0.069763, -20.492554, -3.814697, -34.698486
1491873297.531460, 1491873297.533757, -0.122131, +0.994446, -0.069763, -20.172119, -3.799438, -35.781860
1491873297.534021, 1491873297.536321, -0.122131, +0.994446, -0.044678, -20.172119, -3.799438, -35.781860
1491873297.536585, 1491873297.538887, -0.106018, +1.012390, -0.044678, -20.538330, -2.838135, -36.621094
1491873297.539153, 1491873297.541541, -0.106018, +1.012390, -0.044678, -20.538330, -2.838135, -36.621094
1491873297.541813, 1491873297.544241, -0.106018, +1.012390, -0.044678, -20.629883, -1.724243, -38.162231
1491873297.544516, 1491873297.546936, -0.106018, +1.025024, -0.048157, -20.629883, -1.724243, -38.162231
1491873297.547208, 1491873297.549633, -0.072693, +1.025024, -0.048157, -20.843506, +0.152588, -39.947510
1491873297.549905, 1491873297.552343, -0.072693, +1.025024, -0.048157, -20.843506, +0.152588, -39.947510
1491873297.552614, 1491873297.555032, -0.072693, +1.025024, -0.048157, -20.492554, +1.327515, -41.870117
1491873297.555303, 1491873297.557722, -0.081482, +1.018066, -0.085510, -20.492554, +1.327515, -41.870117
1491873297.557993, 1491873297.560423, -0.081482, +1.018066, -0.085510, -20.660400, +2.624512, -44.052124
1491873297.560697, 1491873297.563123, -0.081482, +1.018066, -0.085510, -20.660400, +2.624512, -44.052124
1491873297.563394, 1491873297.565818, -0.081482, +1.018066, -0.085510, -20.477295, +2.639771, -46.813965
1491873297.566089, 1491873297.568515, -0.103821, +1.047180, -0.083313, -20.477295, +2.639771, -46.813965
1491873297.568786, 1491873297.571211, -0.103821, +1.047180, -0.083313, -21.163940, +1.037598, -48.828125
1491873297.571484, 1491873297.573914, -0.103821, +1.047180, -0.083313, -21.163940, +1.037598, -48.828125
1491873297.574286, 1491873297.576709, -0.103821, +1.047180, -0.083313, -22.109985, +1.190186, -51.208496
1491873297.576982, 1491873297.579403, -0.117188, +1.081970, -0.071594, -22.109985, +1.190186, -51.208496
1491873297.579674, 1491873297.582007, -0.117188, +1.081970, -0.071594, -23.315430, +1.510620, -53.176880
1491873297.582272, 1491873297.584571, -0.117188, +1.081970, -0.071594, -23.315430, +1.510620, -53.176880
1491873297.584835, 1491873297.587139, -0.117188, +1.128845, -0.089172, -24.642944, +0.000000, -55.770874
1491873297.587403, 1491873297.589700, -0.112610, +1.133606, -0.089172, -24.642944, +0.000000, -55.770874
1491873297.589964, 1491873297.592410, -0.112610, +1.133606, -0.089172, -26.367188, -2.365112, -59.204102
1491873297.592685, 1491873297.595114, -0.112610, +1.133606, -0.089172, -26.367188, -2.365112, -59.204102
1491873297.595389, 1491873297.597811, -0.065735, +1.198059, -0.102905, -28.366089, -3.570557, -61.965942
1491873297.598082, 1491873297.600519, -0.049072, +1.198059, -0.102905, -28.366089, -3.570557, -61.965942
1491873297.600792, 1491873297.603224, -0.049072, +1.198059, -0.102905, -30.960083, -3.631592, -64.620972
1491873297.603496, 1491873297.605920, -0.049072, +1.198059, -0.102905, -30.960083, -3.631592, -64.620972
1491873297.606192, 1491873297.608617, -0.071960, +1.205566, -0.134766, -33.569336, -2.304077, -67.596436
1491873297.608890, 1491873297.611321, -0.071960, +1.205566, -0.134766, -33.569336, -2.304077, -71.502686
1491873297.611592, 1491873297.614017, -0.071960, +1.205566, -0.134766, -36.285400, -1.983643, -71.655273
1491873297.614287, 1491873297.616719, -0.071960, +1.205566, -0.134766, -36.285400, -1.983643, -77.621460
1491873297.616990, 1491873297.619410, +0.095032, +1.119141, -0.173401, -38.452148, -1.937866, -77.621460
1491873297.619681, 1491873297.622009, +0.095032, +1.119141, -0.173401, -38.452148, -1.937866, -81.924438
1491873297.622276, 1491873297.624577, +0.095032, +1.119141, -0.173401, -39.733887, +0.091553, -81.924438
1491873297.624843, 1491873297.627134, +0.095032, +1.119141, -0.173401, -39.733887, +0.091553, -85.830688
1491873297.627399, 1491873297.629702, +0.052002, +0.979980, -0.218445, -40.313721, +5.828857, -83.648682
1491873297.629968, 1491873297.632268, +0.052002, +0.979980, -0.218445, -40.313721, +5.828857, -83.648682
1491873297.632534, 1491873297.634833, +0.052002, +0.979980, -0.218445, -39.733887, +11.840820, -83.938599
1491873297.635099, 1491873297.637403, +0.052002, +0.979980, -0.171570, -39.733887, +11.840820, -83.938599
1491873297.637670, 1491873297.639969, -0.449158, +1.030701, -0.149048, -39.489746, +13.336182, -83.251953
1491873297.640292, 1491873297.642711, -0.449158, +1.030701, -0.149048, -39.489746, +13.336182, -83.251953
1491873297.642984, 1491873297.645414, -0.449158, +1.030701, -0.149048, -37.689209, +13.793945, -82.458496
1491873297.645689, 1491873297.648108, -0.449158, +1.124451, -0.047791, -37.689209, +13.793945, -78.552246
1491873297.648382, 1491873297.650815, -0.531555, +1.118958, -0.047791, -36.193848, +12.710571, -80.337524
1491873297.651089, 1491873297.653511, -0.531555, +1.118958, -0.047791, -36.193848, +12.710571, -76.431274
1491873297.653785, 1491873297.656210, -0.531555, +1.118958, -0.047791, -36.422729, +8.178711, -77.102661
1491873297.656482, 1491873297.658909, -0.297180, +1.134338, -0.022156, -36.422729, +8.178711, -75.775146
1491873297.659181, 1491873297.661609, -0.300293, +1.134338, -0.022156, -36.621094, +2.807617, -75.775146
1491873297.661881, 1491873297.664307, -0.300293, +1.134338, -0.022156, -36.621094, +2.807617, -76.675415
1491873297.664580, 1491873297.667007, -0.300293, +1.134338, -0.022156, -38.055420, -0.976562, -76.675415
1491873297.667281, 1491873297.669700, -0.106750, +1.083801, +0.037903, -38.055420, -0.976562, -78.964233
1491873297.669974, 1491873297.672298, -0.106750, +1.083801, +0.037903, -39.855957, -2.731323, -78.964233
1491873297.672563, 1491873297.674857, -0.106750, +1.083801, +0.037903, -39.855957, -2.731323, -80.886841
1491873297.675122, 1491873297.677416, -0.106750, +1.083801, +0.037903, -40.832520, -3.448486, -80.886841
1491873297.677780, 1491873297.680122, -0.203430, +1.012207, -0.008057, -40.832520, -3.448486, -81.787109
1491873297.680396, 1491873297.682818, -0.203430, +1.012207, -0.008057, -41.351318, -2.395630, -81.787109
1491873297.683090, 1491873297.685516, -0.203430, +1.012207, -0.008057, -41.351318, -2.395630, -82.397461
1491873297.685790, 1491873297.688217, -0.203430, +1.012207, +0.038818, -42.724609, -2.807617, -82.397461
1491873297.688489, 1491873297.690926, -0.385986, +0.996826, +0.013550, -42.724609, -4.867554, -83.328247
1491873297.691200, 1491873297.693626, -0.385986, +0.996826, +0.013550, -43.640137, -4.867554, -83.328247
1491873297.693896, 1491873297.696321, -0.385986, +0.996826, +0.013550, -43.640137, -6.149292, -83.541870
1491873297.696593, 1491873297.699014, -0.385986, +0.715576, +0.028015, -45.257568, -6.149292, -83.541870
1491873297.699287, 1491873297.701727, -0.404663, +0.739563, +0.028015, -45.776367, -6.362915, -82.626343
1491873297.701998, 1491873297.704422, -0.404663, +0.739563, +0.028015, -45.776367, -6.362915, -82.626343
1491873297.704693, 1491873297.707117, -0.404663, +0.739563, +0.028015, -45.578003, -6.210327, -81.054688
1491873297.707389, 1491873297.709822, -0.571655, +0.647644, -0.004028, -45.578003, -6.210327, -81.054688
1491873297.710103, 1491873297.712532, -0.571655, +0.647644, -0.004028, -44.692993, -6.942749, -78.811646
1491873297.712804, 1491873297.715235, -0.571655, +0.647644, -0.004028, -44.692993, -6.942749, -78.811646
1491873297.715509, 1491873297.717938, -0.571655, +0.647644, -0.004028, -43.640137, -9.490967, -75.393677
1491873297.718212, 1491873297.720684, -0.642517, +0.744690, -0.008789, -43.640137, -9.490967, -75.393677
1491873297.720950, 1491873297.723250, -0.642517, +0.744690, -0.008789, -41.427612, -12.802124, -70.449829
1491873297.723517, 1491873297.725821, -0.642517, +0.744690, -0.008789, -41.427612, -12.802124, -70.449829
1491873297.726089, 1491873297.728389, -0.642517, +0.744690, -0.008789, -40.618896, -15.731812, -65.338135
1491873297.728656, 1491873297.731020, -0.584656, +0.900879, +0.027283, -40.618896, -15.731812, -65.338135
1491873297.731295, 1491873297.733717, -0.584656, +0.900879, +0.027283, -40.039062, -18.539429, -60.775757
1491873297.733992, 1491873297.736421, -0.584656, +0.900879, +0.027283, -40.039062, -18.539429, -60.775757
1491873297.736696, 1491873297.739114, -0.584656, +0.900879, +0.027283, -39.978027, -20.324707, -57.144165
1491873297.739387, 1491873297.741816, -0.453552, +1.043152, +0.040100, -39.978027, -20.324707, -57.144165
1491873297.742090, 1491873297.744518, -0.453552, +1.043152, +0.040100, -40.130615, -19.851685, -55.236816
1491873297.744792, 1491873297.747213, -0.453552, +1.043152, +0.040100, -40.130615, -19.851685, -55.236816
1491873297.747488, 1491873297.749918, -0.453552, +1.049744, +0.098328, -40.084839, -18.524170, -53.146362
1491873297.750202, 1491873297.752504, -0.384155, +1.049744, +0.098328, -40.084839, -18.524170, -53.146362
1491873297.752770, 1491873297.755070, -0.384155, +1.049744, +0.098328, -41.839600, -17.913818, -51.376343
1491873297.755338, 1491873297.757637, -0.384155, +1.049744, +0.098328, -41.839600, -17.913818, -51.376343
1491873297.757902, 1491873297.760211, -0.384155, +0.906372, +0.183838, -43.777466, -18.325806, -49.789429
1491873297.760485, 1491873297.762915, -0.377563, +0.906372, +0.183838, -43.777466, -18.325806, -49.789429
1491873297.763188, 1491873297.765617, -0.377563, +0.906372, +0.183838, -45.074463, -18.203735, -47.668457
1491873297.765889, 1491873297.768316, -0.377563, +0.906372, +0.183838, -45.074463, -18.203735, -47.668457
1491873297.768589, 1491873297.770970, -0.355042, +0.608643, +0.184570, -46.112061, -15.731812, -44.281006
1491873297.771241, 1491873297.773541, -0.355042, +0.608643, +0.184570, -46.112061, -15.731812, -44.281006
1491873297.773807, 1491873297.776101, -0.355042, +0.608643, +0.184570, -46.051025, -7.995605, -37.902832
1491873297.776365, 1491873297.778671, -0.355042, +0.608643, +0.184570, -46.051025, -7.995605, -37.902832
1491873297.778936, 1491873297.781349, -0.662476, -0.002563, +0.012085, -41.793823, +2.258301, -29.663086
1491873297.781736, 1491873297.784158, -0.662476, -0.002563, +0.012085, -41.793823, +2.258301, -29.663086
1491873297.784427, 1491873297.786856, -0.662476, -0.002563, +0.012085, -33.981323, +9.536743, -19.104004
1491873297.787130, 1491873297.789552, -0.662476, -0.002563, +0.012085, -33.981323, +9.536743, -19.104004
1491873297.789825, 1491873297.792298, -1.330811, -0.425903, -0.088623, -23.605347, +9.414673, -7.720947
1491873297.792568, 1491873297.794998, -1.330811, -0.425903, -0.088623, -23.605347, +9.414673, -7.720947
1491873297.795266, 1491873297.797688, -1.330811, -0.425903, -0.088623, -15.167236, -1.937866, +2.288818
1491873297.797955, 1491873297.800399, -1.330811, +0.511597, +0.078369, -15.167236, -1.937866, +2.288818
1491873297.800668, 1491873297.803093, -1.318909, +0.502991, +0.078369, -9.017944, -17.715454, +16.632080
1491873297.803364, 1491873297.805789, -1.318909, +0.502991, +0.078369, -9.017944, -17.715454, +16.632080
1491873297.806061, 1491873297.808490, -1.318909, +0.502991, +0.078369, -4.089355, -27.191162, +29.312134
1491873297.808762, 1491873297.811191, -0.432129, +1.502930, +0.296814, -4.089355, -27.191162, +37.124634
1491873297.811462, 1491873297.813882, -0.432129, +1.502930, +0.296814, +0.534058, -24.856567, +35.934448
1491873297.814153, 1491873297.816580, -0.432129, +1.502930, +0.296814, +0.534058, -24.856567, +40.252686
1491873297.816851, 1491873297.819277, -0.432129, +1.502930, +0.296814, +2.670288, -15.823364, +40.252686
1491873297.819548, 1491873297.821890, -0.220276, +2.392456, +0.533203, +2.670288, -15.823364, +41.854858
1491873297.822155, 1491873297.824452, -0.220276, +2.392456, +0.533203, +4.669189, -3.509521, +41.854858
1491873297.824711, 1491873297.827010, -0.220276, +2.392456, +0.533203, +4.669189, -3.509521, +41.854858
1491873297.827270, 1491873297.829573, -0.220276, +2.392456, +0.533203, +9.307861, +7.553101, +42.221069
1491873297.829833, 1491873297.832294, -0.376831, +1.942566, +0.501160, +9.307861, +7.553101, +46.127319
1491873297.832564, 1491873297.834981, -0.376831, +1.942566, +0.501160, +18.112183, +14.129639, +44.036865
1491873297.835253, 1491873297.837677, -0.376831, +1.942566, +0.501160, +18.112183, +14.129639, +47.988892
1491873297.837950, 1491873297.840385, -0.376831, +1.942566, +0.501160, +30.303955, +17.471313, +47.988892
1491873297.840661, 1491873297.843088, -0.504456, +1.689331, +0.522949, +30.303955, +17.471313, +52.047729
1491873297.843362, 1491873297.845787, -0.504456, +1.689331, +0.522949, +41.213989, +19.836426, +52.047729
1491873297.846061, 1491873297.848479, -0.504456, +1.689331, +0.522949, +41.213989, +15.930176, +60.531616
1491873297.848752, 1491873297.851197, -0.504456, +1.595581, +0.421875, +50.384521, +19.012451, +60.531616
1491873297.851470, 1491873297.853896, -0.704773, +1.608032, +0.421875, +50.384521, +15.106201, +69.869995
1491873297.854170, 1491873297.856596, -0.704773, +1.608032, +0.421875, +61.264038, +14.022827, +69.869995
1491873297.856871, 1491873297.859297, -0.704773, +1.608032, +0.421875, +61.264038, +7.705688, +77.026367
1491873297.859569, 1491873297.862003, -0.756775, +1.603821, +0.290405, +72.463989, +7.705688, +77.026367
1491873297.862274, 1491873297.864701, -0.756775, +1.603821, +0.290405, +84.182739, +3.067017, +85.296631
1491873297.864971, 1491873297.867395, -0.756775, +1.603821, +0.290405, +82.641602, +3.067017, +85.296631
1491873297.867665, 1491873297.870101, -0.756775, +1.603821, +0.290405, +91.827393, -1.480103, +96.511841
1491873297.870367, 1491873297.872671, -0.713562, +1.857239, +0.475342, +91.827393, -1.480103, +96.511841
1491873297.872934, 1491873297.875230, -0.713562, +1.857239, +0.475342, +99.914551, -8.773804, +108.276367
1491873297.875496, 1491873297.877792, -0.713562, +1.857239, +0.475342, +99.914551, -8.773804, +108.276367
1491873297.878056, 1491873297.880376, -0.713562, +1.857239, +0.475342, +107.727051, -18.661499, +120.651245
1491873297.880650, 1491873297.883080, -0.384155, +2.375244, +0.678040, +106.536865, -18.661499, +120.651245
1491873297.883354, 1491873297.885781, -0.384155, +2.375244, +0.678040, +110.443115, -27.954102, +131.072998
1491873297.886163, 1491873297.888588, -0.384155, +2.375244, +0.678040, +111.160278, -27.954102, +131.072998
1491873297.888865, 1491873297.891299, -0.384155, +2.375244, +0.631165, +112.991333, -35.705566, +139.923096
1491873297.891573, 1491873297.894000, -0.067932, +2.846558, +0.654602, +112.991333, -35.705566, +139.923096
1491873297.894275, 1491873297.896697, -0.067932, +2.846558, +0.654602, +111.526489, -50.231934, +150.466919
1491873297.896970, 1491873297.899393, -0.067932, +2.846558, +0.654602, +111.526489, -50.231934, +150.466919
1491873297.899667, 1491873297.902109, -0.067932, +3.034058, +0.448792, +109.619141, -67.550659, +161.666870
1491873297.902384, 1491873297.904808, +0.522034, +3.034058, +0.448792, +109.619141, -67.550659, +161.666870
1491873297.905084, 1491873297.907508, +0.522034, +3.034058, +0.448792, +106.735229, -82.550049, +178.329468
1491873297.907781, 1491873297.910205, +0.522034, +3.034058, +0.448792, +106.735229, -82.550049, +178.329468
1491873297.910480, 1491873297.912905, +1.257568, +3.115906, -0.023621, +104.309082, -94.787598, +203.750610
1491873297.913179, 1491873297.915605, +1.257568, +3.115906, -0.023621, +104.309082, -94.787598, +203.750610
1491873297.915878, 1491873297.918300, +1.257568, +3.115906, -0.023621, +105.575562, -104.080200, +227.035522
1491873297.918576, 1491873297.920963, +1.257568, +3.115906, -0.023621, +105.575562, -104.080200, +227.035522
1491873297.921229, 1491873297.923532, +1.844421, +3.198669, -0.484863, +105.957031, -90.454102, +240.585327
1491873297.923798, 1491873297.926093, +1.844421, +3.198669, -0.484863, +105.957031, -90.454102, +240.585327
1491873297.926358, 1491873297.928659, +1.844421, +3.198669, -0.484863, +103.134155, -55.068970, +234.939575
1491873297.928922, 1491873297.931328, +1.844421, +3.198669, -0.484863, +103.134155, -55.068970, +234.939575
1491873297.931599, 1491873297.934022, +1.384277, +2.889404, -0.722168, +78.964233, -18.554688, +226.867676
1491873297.934295, 1491873297.936727, +1.384277, +2.889404, -0.722168, +78.964233, -18.554688, +226.867676
1491873297.937000, 1491873297.939423, +1.384277, +2.889404, -0.722168, +53.329468, +25.985718, +212.265015
1491873297.939696, 1491873297.942129, +1.384277, +2.889404, -0.206543, +53.329468, +25.985718, +212.265015
1491873297.942401, 1491873297.944826, -0.634460, +2.213745, -0.219727, +16.555786, +75.668335, +170.654297
1491873297.945099, 1491873297.947520, -0.634460, +2.213745, -0.219727, +16.555786, +75.668335, +170.654297
1491873297.947794, 1491873297.950226, -0.634460, +2.213745, -0.219727, -4.241943, +83.724976, +97.824097
1491873297.950499, 1491873297.952923, -0.634460, +1.989441, +0.013733, -4.241943, +83.724976, +97.824097
1491873297.953195, 1491873297.955613, -4.815308, +1.989441, +0.013733, -22.216797, +31.982422, +40.313721
1491873297.955885, 1491873297.958313, -4.815308, +1.989441, +0.013733, -22.216797, +31.982422, +40.313721
1491873297.958584, 1491873297.961011, -4.815308, +1.989441, +0.013733, -35.400391, -34.652710, +42.190552
1491873297.961285, 1491873297.963706, -5.182800, -0.819031, -0.834778, -35.400391, -34.652710, +42.190552
1491873297.963981, 1491873297.966406, -5.182800, -0.819031, -0.834778, -9.552002, -108.367920, +39.169312
1491873297.966677, 1491873297.969097, -5.182800, -0.819031, -0.834778, -9.552002, -108.367920, +0.106812
1491873297.969367, 1491873297.971726, -5.182800, -0.819031, -0.834778, +28.762817, -175.750732, +2.624512
1491873297.971991, 1491873297.974296, -3.234192, +0.600769, -0.523499, +28.762817, -175.750732, -5.187988
1491873297.974560, 1491873297.976859, -3.234192, +0.600769, -0.523499, +6.027222, -184.188843, -7.308960
1491873297.977119, 1491873297.979424, -3.234192, +0.600769, -0.523499, +6.027222, -184.188843, +0.503540
1491873297.979686, 1491873297.982023, -3.234192, +0.600769, -0.523499, -25.604248, -148.925781, +1.174927
1491873297.982286, 1491873297.984573, -0.483948, +0.332703, -0.161133, -25.604248, -148.925781, +1.174927
1491873297.984837, 1491873297.987133, -0.483948, +0.332703, -0.161133, -14.633179, -115.844727, -13.473511
1491873297.987498, 1491873297.989798, -0.483948, +0.332703, -0.161133, -14.633179, -115.844727, -13.473511
1491873297.990104, 1491873297.992541, -0.483948, +0.332703, -0.161133, -5.187988, -67.825317, -28.289795
1491873297.992812, 1491873297.995238, +0.340393, +0.557922, +0.163330, -5.187988, -67.825317, -40.008545
1491873297.995510, 1491873297.997928, +0.340393, +0.557922, +0.163330, -11.718750, -35.980225, -41.885376
1491873297.998203, 1491873298.000690, +0.340393, +0.557922, +0.163330, -11.718750, -35.980225, -55.755615
1491873298.000965, 1491873298.003383, +0.340393, +0.136047, +0.230896, -16.815186, -21.026611, -55.755615
1491873298.003656, 1491873298.006082, +0.004578, +0.116455, +0.230896, -16.815186, -21.026611, -64.819336
1491873298.006357, 1491873298.008790, +0.004578, +0.116455, +0.230896, -16.769409, -9.262085, -64.819336
1491873298.009064, 1491873298.011501, +0.004578, +0.116455, +0.230896, -16.769409, -1.449585, -65.658569
1491873298.011774, 1491873298.014254, -0.629150, -0.064270, +0.030579, -18.524170, -1.708984, -65.658569
1491873298.014528, 1491873298.016941, -0.629150, -0.064270, +0.030579, -18.524170, -1.708984, -59.829712
1491873298.017213, 1491873298.019624, -0.629150, -0.064270, +0.030579, -21.591187, -2.746582, -59.829712
1491873298.019896, 1491873298.022219, -0.629150, -0.064270, +0.030579, -21.591187, -9.384155, -52.658081
1491873298.022484, 1491873298.024812, -0.591614, -0.160217, -0.201965, -21.148682, -9.384155, -52.658081
1491873298.025076, 1491873298.027375, -0.591614, -0.160217, -0.201965, -21.148682, -13.290405, -45.211792
1491873298.027642, 1491873298.029942, -0.591614, -0.160217, -0.201965, -16.876221, -14.968872, -45.211792
1491873298.030216, 1491873298.032642, -0.591614, -0.160217, -0.201965, -16.876221, -22.781372, -39.184570
1491873298.032915, 1491873298.035347, -0.388550, -0.052734, -0.179810, -11.917114, -21.240234, -39.184570
1491873298.035620, 1491873298.038044, -0.388550, -0.052734, -0.179810, -11.917114, -28.594971, -34.927368
1491873298.038317, 1491873298.040753, -0.388550, -0.052734, -0.179810, -9.262085, -28.594971, -34.927368
1491873298.041024, 1491873298.043449, -0.388550, -0.052734, -0.179810, -9.262085, -33.233643, -30.838013
1491873298.043724, 1491873298.046142, -0.375732, -0.021057, +0.032593, -9.552002, -33.233643, -30.838013
1491873298.046415, 1491873298.048835, -0.375732, -0.021057, +0.032593, -9.552002, -35.354614, -26.306152
1491873298.049105, 1491873298.051540, -0.375732, -0.021057, +0.032593, -10.711670, -35.354614, -26.306152
1491873298.051814, 1491873298.054234, -0.375732, -0.021057, +0.105652, -11.672974, -36.712646, -20.629883
1491873298.054507, 1491873298.056935, -0.329041, -0.009888, +0.105652, -11.672974, -36.712646, -20.629883
1491873298.057211, 1491873298.059638, -0.329041, -0.009888, +0.105652, -11.611938, -37.750244, -16.189575
1491873298.059917, 1491873298.062231, -0.329041, -0.009888, +0.105652, -11.611938, -37.750244, -16.189575
1491873298.062499, 1491873298.064801, -0.141541, +0.052368, +0.031128, -10.223389, -36.819458, -12.954712
1491873298.065067, 1491873298.067366, -0.174500, +0.052368, +0.031128, -10.223389, -36.819458, -12.954712
1491873298.067632, 1491873298.069925, -0.174500, +0.052368, +0.031128, -9.353638, -32.577515, -11.260986
1491873298.070195, 1491873298.072622, -0.174500, +0.052368, +0.031128, -9.353638, -32.577515, -11.260986
1491873298.072895, 1491873298.075315, +0.040649, +0.102173, -0.020508, -8.956909, -25.863647, -9.963989
1491873298.075585, 1491873298.078012, +0.040649, +0.102173, -0.020508, -8.956909, -25.863647, -9.963989
1491873298.078283, 1491873298.080713, +0.040649, +0.102173, -0.020508, -9.246826, -17.150879, -8.514404
1491873298.080984, 1491873298.083405, +0.040649, +0.102173, -0.020508, -9.246826, -17.150879, -8.514404
1491873298.083674, 1491873298.086096, +0.273926, +0.086609, -0.019043, -10.375977, -7.476807, -7.217407
1491873298.086364, 1491873298.088784, +0.273926, +0.086609, -0.019043, -10.375977, -7.476807, -7.217407
1491873298.089053, 1491873298.091517, +0.273926, +0.086609, -0.019043, -10.543823, +2.853394, -6.011963
1491873298.091892, 1491873298.094315, +0.273926, +0.086609, -0.019043, -10.543823, +2.853394, -6.011963
1491873298.094585, 1491873298.097006, +0.497314, +0.017395, -0.044312, -9.292603, +13.595581, -5.584717
1491873298.097276, 1491873298.099699, +0.497314, +0.017395, -0.044312, -9.292603, +13.595581, -5.584717
1491873298.099967, 1491873298.102290, +0.497314, +0.017395, -0.044312, -7.400513, +23.040771, -3.433228
1491873298.102554, 1491873298.104852, +0.497314, -0.123230, -0.114258, -7.400513, +23.040771, -3.433228
1491873298.105114, 1491873298.107421, +0.528992, -0.106201, -0.114258, -5.172729, +28.625488, -1.525879
1491873298.107683, 1491873298.109982, +0.528992, -0.106201, -0.114258, -5.172729, +28.625488, -1.525879
1491873298.110297, 1491873298.112589, +0.528992, -0.106201, -0.114258, -3.692627, +31.097412, +1.113892
1491873298.112850, 1491873298.115147, +0.528992, -0.173401, -0.136230, -3.692627, +31.097412, +1.113892
1491873298.115407, 1491873298.117705, +0.512512, -0.173401, -0.136230, -2.304077, +31.967163, +2.822876
1491873298.117966, 1491873298.120326, +0.512512, -0.173401, -0.136230, -2.304077, +31.967163, +2.822876
1491873298.120596, 1491873298.123018, +0.512512, -0.173401, -0.136230, -1.373291, +32.546997, +3.814697
1491873298.123286, 1491873298.125707, +0.465637, -0.196472, -0.061157, -1.373291, +32.546997, +3.814697
1491873298.125975, 1491873298.128400, +0.429382, -0.196472, -0.061157, -0.396729, +33.996582, +4.989624
1491873298.128669, 1491873298.131105, +0.429382, -0.196472, -0.061157, -0.396729, +33.996582, +4.989624
1491873298.131372, 1491873298.133792, +0.429382, -0.196472, -0.061157, +1.296997, +35.964966, +6.256104
1491873298.134062, 1491873298.136487, +0.296448, -0.185120, -0.019226, +1.296997, +35.964966, +6.256104
1491873298.136756, 1491873298.139178, +0.296448, -0.185120, -0.019226, +2.487183, +36.605835, +6.881714
1491873298.139448, 1491873298.141921, +0.296448, -0.185120, -0.019226, +2.487183, +36.605835, +6.881714
1491873298.142190, 1491873298.144614, +0.296448, -0.185120, -0.019226, +3.479004, +36.819458, +9.078979
1491873298.144882, 1491873298.147309, +0.173584, -0.163696, -0.045410, +3.479004, +36.819458, +9.078979
1491873298.147578, 1491873298.150007, +0.173584, -0.163696, -0.045410, +5.294800, +35.507202, +10.665894
1491873298.150323, 1491873298.152624, +0.173584, -0.163696, -0.045410, +5.294800, +35.507202, +10.665894
1491873298.152887, 1491873298.155185, +0.173584, -0.163696, -0.092285, +7.125854, +32.867432, +11.947632
1491873298.155448, 1491873298.157753, +0.128906, -0.125244, -0.077454, +7.125854, +32.867432, +11.947632
1491873298.158017, 1491873298.160335, +0.128906, -0.125244, -0.077454, +8.697510, +31.524658, +13.366699
1491873298.160608, 1491873298.163034, +0.128906, -0.125244, -0.077454, +8.697510, +31.524658, +13.366699
1491873298.163306, 1491873298.165725, +0.128906, -0.125244, -0.084961, +9.979248, +32.119751, +15.151978
1491873298.165997, 1491873298.168421, +0.157471, -0.058777, -0.084961, +9.979248, +32.119751, +15.151978
1491873298.168694, 1491873298.171136, +0.157471, -0.058777, -0.084961, +10.681152, +32.974243, +17.013550
1491873298.171414, 1491873298.173834, +0.157471, -0.058777, -0.084961, +10.681152, +32.974243, +17.013550
1491873298.174109, 1491873298.176533, +0.251221, +0.017212, -0.075989, +11.230469, +34.484863, +17.898560
1491873298.176806, 1491873298.179232, +0.235840, +0.017212, -0.075989, +11.230469, +34.484863, +17.898560
1491873298.179505, 1491873298.181941, +0.235840, +0.017212, -0.075989, +11.016846, +37.719727, +17.913818
1491873298.182215, 1491873298.184645, +0.235840, +0.017212, -0.075989, +11.016846, +37.719727, +17.913818
1491873298.184921, 1491873298.187344, +0.270264, +0.054016, -0.066284, +10.910034, +43.029785, +17.272949
1491873298.187619, 1491873298.190101, +0.270264, +0.054016, -0.066284, +10.910034, +43.029785, +16.235352
1491873298.190376, 1491873298.192808, +0.270264, +0.054016, -0.066284, +10.482788, +49.804688, +16.235352
1491873298.193081, 1491873298.195503, +0.270264, +0.054016, -0.066284, +10.482788, +49.804688, +14.892578
1491873298.195876, 1491873298.198300, +0.256348, +0.061157, -0.077271, +9.796143, +57.067871, +14.892578
1491873298.198574, 1491873298.200958, +0.256348, +0.061157, -0.077271, +9.796143, +64.880371, +13.549805
1491873298.201224, 1491873298.203518, +0.256348, +0.061157, -0.077271, +8.850098, +64.163208, +13.549805
1491873298.203784, 1491873298.206081, +0.256348, +0.061157, -0.125244, +8.850098, +64.163208, +11.123657
1491873298.206346, 1491873298.208647, +0.202698, +0.052002, -0.125244, +8.071899, +70.297241, +11.123657
1491873298.208912, 1491873298.211309, +0.202698, +0.052002, -0.125244, +8.071899, +70.297241, +7.919312
1491873298.211575, 1491873298.213984, +0.202698, +0.052002, -0.125244, +7.644653, +76.782227, +7.919312
1491873298.214251, 1491873298.216652, +0.202698, +0.052002, -0.193359, +7.644653, +80.688477, +4.592896
1491873298.216919, 1491873298.219327, +0.057312, +0.051636, -0.193359, +9.429932, +80.902100, +4.592896
1491873298.219597, 1491873298.222013, +0.057312, +0.051636, -0.193359, +9.429932, +76.995850, +1.007080
1491873298.222281, 1491873298.224690, +0.057312, +0.051636, -0.193359, +11.169434, +76.416016, +1.007080
1491873298.224961, 1491873298.227370, -0.019958, +0.104370, -0.321167, +11.169434, +63.720703, -3.326416
1491873298.227641, 1491873298.230085, -0.019958, +0.104370, -0.321167, +10.986328, +63.720703, -3.326416
1491873298.230355, 1491873298.232736, -0.019958, +0.104370, -0.321167, +10.986328, +51.513672, -7.629395
1491873298.233006, 1491873298.235390, -0.019958, +0.104370, -0.321167, +8.926392, +51.513672, -7.629395
1491873298.235659, 1491873298.238038, +0.004395, +0.167908, -0.278137, +5.020142, +42.678833, -11.840820
1491873298.238309, 1491873298.240731, +0.004395, +0.167908, -0.278137, +5.599976, +42.678833, -11.840820
1491873298.241003, 1491873298.243432, +0.004395, +0.167908, -0.278137, -2.212524, +34.301758, -14.648438
1491873298.243703, 1491873298.246124, +0.004395, +0.167908, -0.278137, -0.534058, +34.301758, -14.648438
1491873298.246396, 1491873298.248824, -0.063721, +0.363281, +0.082031, -13.046265, +27.359009, -16.464233
1491873298.249097, 1491873298.251461, -0.063721, +0.363281, +0.082031, -13.046265, +27.359009, -16.464233
1491873298.251730, 1491873298.254030, -0.063721, +0.363281, +0.082031, -22.857666, +24.597168, -22.094727
1491873298.254297, 1491873298.256596, -0.063721, +0.363281, +0.410156, -22.857666, +24.597168, -22.094727
1491873298.256863, 1491873298.259156, -0.271545, +0.454102, +0.411621, -26.763916, +28.457642, -30.700684
1491873298.259422, 1491873298.261722, -0.271545, +0.454102, +0.411621, -26.504517, +28.457642, -30.700684
1491873298.261989, 1491873298.264290, -0.271545, +0.454102, +0.411621, -26.504517, +33.584595, -41.778564
1491873298.264555, 1491873298.266851, -0.271545, +0.454102, +0.224121, -25.466919, +33.584595, -41.778564
1491873298.267116, 1491873298.269418, -0.528442, +0.327209, +0.202515, -25.466919, +30.670166, -51.513672
1491873298.269683, 1491873298.272140, -0.528442, +0.327209, +0.202515, -22.262573, +30.670166, -51.513672
1491873298.272415, 1491873298.274842, -0.528442, +0.327209, +0.202515, -22.262573, +23.773193, -59.295654
1491873298.275115, 1491873298.277542, -0.528442, +0.327209, +0.093933, -20.156860, +23.773193, -59.295654
1491873298.277816, 1491873298.280283, -0.284912, +0.308350, +0.093933, -16.250610, +23.315430, -66.238403
1491873298.280559, 1491873298.282983, -0.284912, +0.308350, +0.093933, -19.439697, +23.315430, -66.238403
1491873298.283257, 1491873298.285683, -0.284912, +0.308350, +0.093933, -21.499634, +27.786255, -72.586060
1491873298.285958, 1491873298.288378, -0.009521, +0.457764, +0.255798, -21.499634, +27.786255, -72.586060
1491873298.288654, 1491873298.291089, -0.009521, +0.457764, +0.255798, -26.535034, +33.264160, -77.194214
1491873298.291363, 1491873298.293787, -0.009521, +0.457764, +0.255798, -26.535034, +33.264160, -77.194214
1491873298.294063, 1491873298.296485, -0.009521, +0.457764, +0.255798, -31.036377, +27.969360, -101.562500
1491873298.296760, 1491873298.299186, -3.150879, -0.069763, +0.721436, -31.036377, +27.969360, -101.562500
1491873298.299569, 1491873298.301903, -3.150879, -0.069763, +0.721436, -51.132202, +58.593750, -137.634277
1491873298.302171, 1491873298.304469, -3.150879, -0.069763, +0.721436, -51.132202, +58.593750, -137.634277
1491873298.304735, 1491873298.307041, -3.150879, -0.069763, +0.721436, -79.299927, +74.493408, -310.623169
1491873298.307307, 1491873298.309602, -5.995605, +3.432678, +2.014526, -79.299927, +74.493408, -310.623169
1491873298.309865, 1491873298.312307, -5.995605, +3.432678, +2.014526, -122.909546, +59.722900, -316.009521
1491873298.312579, 1491873298.314985, -5.995605, +3.432678, +2.014526, -122.909546, +59.722900, -316.009521
1491873298.315257, 1491873298.317664, -5.995605, +3.432678, +0.186401, -103.958130, -43.914795, -28.610229
1491873298.317934, 1491873298.320361, -0.311279, +5.859558, +0.157288, -103.958130, -43.914795, -28.610229
1491873298.320636, 1491873298.323049, -0.311279, +5.859558, +0.157288, +37.521362, -65.505981, -34.744263
1491873298.323322, 1491873298.325726, -0.311279, +5.859558, +0.157288, +37.521362, -65.505981, -34.744263
1491873298.325998, 1491873298.328410, -0.311279, +3.344788, -3.077454, -24.032593, -25.588989, +11.962891
1491873298.328684, 1491873298.331092, +5.940491, +3.344788, -3.077454, -24.032593, -25.588989, +11.962891
1491873298.331361, 1491873298.333749, +5.940491, +3.344788, -3.077454, -126.312256, -18.768311, -25.848389
1491873298.334020, 1491873298.336406, +5.940491, +3.344788, -3.077454, -126.312256, -18.768311, -25.848389
1491873298.336675, 1491873298.339062, +2.108093, -2.659241, -2.024414, -62.454224, -19.287109, -26.992798
1491873298.339330, 1491873298.341871, +2.108093, -2.659241, -2.024414, -62.454224, -19.287109, -26.992798
1491873298.342141, 1491873298.344568, +2.108093, -2.659241, -2.024414, -19.088745, +108.825684, -16.494751
1491873298.344839, 1491873298.347262, +2.108093, -2.659241, -2.024414, -19.088745, +108.825684, -16.494751
1491873298.347533, 1491873298.349954, -0.564148, -0.319336, -1.558960, +19.470215, +182.876587, -9.887695
1491873298.350216, 1491873298.352510, -0.564148, -0.319336, -1.558960, +19.470215, +182.876587, -9.887695
1491873298.352774, 1491873298.355082, -0.564148, -0.319336, -1.558960, +22.094727, +108.078003, +24.932861
1491873298.355349, 1491873298.357644, -0.564148, -0.319336, -1.558960, +22.094727, +108.078003, +24.932861
1491873298.357909, 1491873298.360220, -0.510498, +4.124451, -1.518677, -4.135132, +61.462402, +27.755737
1491873298.360491, 1491873298.362918, -0.510498, +4.124451, -1.518677, -4.135132, +61.462402, +27.755737
1491873298.363188, 1491873298.365607, -0.510498, +4.124451, -1.518677, -33.615112, +16.311646, -80.612183
1491873298.365881, 1491873298.368298, -0.510498, +4.124451, +1.575073, -33.615112, +16.311646, -80.612183
1491873298.368572, 1491873298.371003, +2.602844, +5.998535, +1.558960, -88.729858, +61.065674, -166.656494
1491873298.371274, 1491873298.373694, +2.602844, +5.998535, +1.558960, -88.729858, +61.065674, -166.656494
1491873298.373965, 1491873298.376394, +2.602844, +5.998535, +1.558960, -145.690918, +44.906616, -114.212036
1491873298.376665, 1491873298.379089, +2.602844, +1.641724, -0.511414, -145.690918, +44.906616, -114.212036
1491873298.379361, 1491873298.381792, +2.993958, +1.641724, -0.511414, -150.680542, +98.968506, -93.154907
1491873298.382067, 1491873298.384493, +2.993958, +1.641724, -0.511414, -150.680542, +98.968506, -50.186157
1491873298.384765, 1491873298.387185, +2.993958, +1.641724, -0.511414, -28.198242, +158.859253, -48.553467
1491873298.387457, 1491873298.389880, -4.419434, -2.221069, +0.559021, -28.198242, +158.859253, -107.147217
1491873298.390162, 1491873298.392590, -4.419434, -2.221069, +0.559021, +5.218506, +89.370728, -106.903076
1491873298.392860, 1491873298.395284, -4.419434, -2.221069, +0.559021, +5.218506, +89.370728, -81.573486
1491873298.395557, 1491873298.397988, -4.419434, -2.221069, +0.559021, +37.490845, +0.778198, -81.573486
1491873298.398259, 1491873298.400666, -1.185791, +1.078857, +0.815552, +37.490845, +0.778198, -38.558960
1491873298.400928, 1491873298.403224, -1.185791, +1.078857, +0.815552, +16.113281, -55.038452, -38.558960
1491873298.403596, 1491873298.405904, -1.185791, +1.078857, +0.815552, +16.113281, -55.038452, -15.823364
1491873298.406169, 1491873298.408469, -1.185791, +1.078857, +0.815552, +17.486572, -52.108765, -15.823364
1491873298.408733, 1491873298.411102, -0.168823, +0.379578, +0.387634, +17.486572, -52.108765, -8.834839
1491873298.411365, 1491873298.413664, -0.168823, +0.379578, +0.387634, +33.218384, -35.476685, -8.834839
1491873298.413928, 1491873298.416223, -0.168823, +0.379578, +0.387634, +33.218384, -35.476685, +0.427246
1491873298.416487, 1491873298.418787, -0.168823, +0.379578, +0.387634, +29.327393, -14.984131, +0.427246
1491873298.419050, 1491873298.421433, -0.785889, +0.652954, +0.695618, +29.327393, -14.984131, +4.333496
1491873298.421705, 1491873298.424129, -0.785889, +0.652954, +0.695618, +19.973755, -0.473022, +7.598877
1491873298.424398, 1491873298.426828, -0.785889, +0.652954, +0.695618, +19.973755, -0.473022, +19.805908
1491873298.427098, 1491873298.429516, -0.785889, +0.652954, +0.606628, +22.323608, -7.690430, +19.805908
1491873298.429787, 1491873298.432211, -1.215088, -0.079468, +0.606628, +22.323608, -7.690430, +32.440186
1491873298.432483, 1491873298.434907, -1.215088, -0.079468, +0.606628, +33.996582, -19.058228, +32.440186
1491873298.435180, 1491873298.437599, -1.215088, -0.079468, +0.606628, +33.996582, -19.058228, +44.433594
1491873298.437872, 1491873298.440311, -0.886963, +0.391113, +0.279968, +41.229248, -16.723633, +44.433594
1491873298.440583, 1491873298.443007, -0.886963, +0.391113, +0.279968, +41.229248, -12.817383, +56.594849
1491873298.443280, 1491873298.445703, -0.886963, +0.391113, +0.279968, +40.649414, -11.795044, +56.594849
1491873298.445976, 1491873298.448409, -0.886963, +0.391113, +0.279968, +40.649414, -9.445190, +65.414429
1491873298.448681, 1491873298.451117, -0.774719, +0.783508, +0.155640, +38.391113, -9.445190, +65.414429
1491873298.451390, 1491873298.453813, -0.774719, +0.783508, +0.155640, +38.391113, -11.627197, +71.456909
1491873298.454085, 1491873298.456516, -0.774719, +0.783508, +0.155640, +36.865234, -11.627197, +71.456909
1491873298.456789, 1491873298.459212, -0.774719, +0.783508, +0.155640, +34.698486, -13.320923, +74.798584
1491873298.459485, 1491873298.461830, -0.488892, +1.119690, +0.019409, +34.698486, -13.320923, +74.798584
1491873298.462097, 1491873298.464391, -0.488892, +1.119690, +0.019409, +31.127930, -9.887695, +75.378418
1491873298.464657, 1491873298.466957, -0.488892, +1.119690, +0.019409, +31.127930, -9.887695, +75.378418
1491873298.467220, 1491873298.469521, -0.488892, +1.119690, +0.019409, +31.127930, -0.808716, +74.630737
1491873298.469787, 1491873298.472245, -0.194458, +1.396545, -0.091553, +27.542114, -0.808716, +74.630737
1491873298.472518, 1491873298.474944, -0.194458, +1.396545, -0.091553, +23.849487, +7.598877, +71.777344
1491873298.475215, 1491873298.477643, -0.194458, +1.396545, -0.091553, +23.849487, +7.598877, +71.777344
1491873298.477917, 1491873298.480374, -0.194458, +1.396545, -0.321533, +19.577026, +12.420654, +68.099976
1491873298.480647, 1491873298.483078, -0.108215, +1.492859, -0.321533, +19.577026, +12.420654, +68.099976
1491873298.483352, 1491873298.485780, -0.108215, +1.492859, -0.321533, +15.609741, +14.297485, +63.537598
1491873298.486056, 1491873298.488479, -0.108215, +1.492859, -0.321533, +15.609741, +14.297485, +63.537598
1491873298.488753, 1491873298.491192, -0.014465, +1.421448, -0.497681, +12.069702, +16.082764, +57.907104
1491873298.491467, 1491873298.493894, -0.015198, +1.421448, -0.497681, +12.069702, +16.082764, +57.907104
1491873298.494167, 1491873298.496590, -0.015198, +1.421448, -0.497681, +9.414673, +16.342163, +52.780151
1491873298.496862, 1491873298.499289, -0.015198, +1.421448, -0.497681, +9.414673, +16.342163, +52.780151
1491873298.499562, 1491873298.501900, -0.053650, +1.136169, -0.484497, +8.987427, +14.312744, +47.790527
1491873298.502165, 1491873298.504467, -0.053650, +1.136169, -0.484497, +8.987427, +14.312744, +47.790527
1491873298.504732, 1491873298.507033, -0.053650, +1.136169, -0.484497, +9.597778, +10.055542, +42.388916
1491873298.507407, 1491873298.509709, -0.053650, +1.136169, -0.484497, +9.597778, +10.055542, +42.388916
1491873298.509973, 1491873298.512275, -0.152893, +1.091309, -0.320618, +9.338379, +2.655029, +37.765503
1491873298.512536, 1491873298.514835, -0.152893, +1.091309, -0.320618, +9.338379, +2.655029, +37.765503
1491873298.515094, 1491873298.517392, -0.152893, +1.091309, -0.320618, +8.483887, -6.500244, +34.194946
1491873298.517652, 1491873298.519953, -0.152893, +1.091309, -0.320618, +8.483887, -6.500244, +34.194946
1491873298.520221, 1491873298.522643, -0.164978, +0.969727, -0.084045, +8.575439, -14.266968, +32.241821
1491873298.522914, 1491873298.525338, -0.164978, +0.969727, -0.084045, +8.575439, -14.266968, +32.241821
1491873298.525611, 1491873298.528032, -0.164978, +0.969727, -0.084045, +9.017944, -21.743774, +31.478882
1491873298.528304, 1491873298.530739, -0.164978, +0.969727, +0.103455, +9.017944, -21.743774, +31.478882
1491873298.531013, 1491873298.533443, -0.300110, +0.841187, +0.096497, +9.017944, -28.991699, +30.166626
1491873298.533715, 1491873298.536136, -0.300110, +0.841187, +0.096497, +9.017944, -28.991699, +30.166626
1491873298.536410, 1491873298.538829, -0.300110, +0.841187, +0.096497, +9.033203, -35.247803, +29.052734
1491873298.539103, 1491873298.541545, -0.300110, +0.818298, +0.236206, +9.033203, -35.247803, +29.052734
1491873298.541819, 1491873298.544248, -0.390747, +0.818298, +0.236206, +9.536743, -40.710449, +28.625488
1491873298.544518, 1491873298.546944, -0.390747, +0.818298, +0.236206, +9.536743, -40.710449, +28.625488
1491873298.547216, 1491873298.549636, -0.390747, +0.818298, +0.236206, +8.666992, -42.358398, +27.297974
1491873298.549907, 1491873298.552224, -0.355042, +0.792664, +0.305786, +8.666992, -42.358398, +27.297974
1491873298.552488, 1491873298.554787, -0.355042, +0.792664, +0.305786, +7.827759, -41.687012, +25.299072
1491873298.555051, 1491873298.557351, -0.355042, +0.792664, +0.305786, +7.827759, -41.687012, +25.299072
1491873298.557614, 1491873298.559906, -0.355042, +0.792664, +0.305786, +6.271362, -39.779663, +22.781372
1491873298.560177, 1491873298.562605, -0.300659, +0.788452, +0.247192, +6.271362, -39.779663, +22.781372
1491873298.562878, 1491873298.565301, -0.300659, +0.788452, +0.247192, +5.081177, -37.796021, +20.019531
1491873298.565572, 1491873298.567993, -0.300659, +0.788452, +0.247192, +5.081177, -37.796021, +20.019531
1491873298.568263, 1491873298.570696, -0.300659, +0.788452, +0.247192, +4.364014, -34.500122, +17.959595
1491873298.570968, 1491873298.573388, -0.140991, +0.789917, +0.030212, +4.364014, -34.500122, +17.959595
1491873298.573661, 1491873298.576087, -0.140991, +0.789917, +0.030212, +3.738403, -29.373169, +16.372681
1491873298.576360, 1491873298.578784, -0.140991, +0.789917, +0.030212, +3.738403, -29.373169, +16.372681
1491873298.579055, 1491873298.581492, -0.140991, +0.789917, -0.204163, +2.563477, -22.460938, +14.968872
1491873298.581763, 1491873298.584195, -0.120850, +0.816284, -0.210571, +2.563477, -22.460938, +14.968872
1491873298.584468, 1491873298.586888, -0.120850, +0.816284, -0.210571, +1.647949, -14.190674, +13.839722
1491873298.587160, 1491873298.589585, -0.120850, +0.816284, -0.210571, +1.647949, -14.190674, +13.839722
1491873298.589855, 1491873298.592205, -0.120850, +0.854187, -0.316223, +0.869751, -7.751465, +12.603760
1491873298.592468, 1491873298.594760, -0.289307, +0.854187, -0.316223, +0.869751, -7.751465, +12.603760
1491873298.595021, 1491873298.597326, -0.289307, +0.854187, -0.316223, +0.015259, -4.425049, +12.268066
1491873298.597587, 1491873298.599889, -0.289307, +0.854187, -0.316223, +0.015259, -4.425049, +12.268066
1491873298.600163, 1491873298.602594, -0.289307, +0.814636, -0.305054, -0.747681, -4.989624, +12.619019
1491873298.602864, 1491873298.605300, -0.440002, +0.814636, -0.305054, -0.747681, -4.989624, +12.619019
1491873298.605569, 1491873298.607995, -0.440002, +0.814636, -0.305054, -0.167847, -7.522583, +13.259888
1491873298.608265, 1491873298.610708, -0.440002, +0.814636, -0.305054, -0.167847, -7.522583, +13.259888
1491873298.611087, 1491873298.613514, -0.515076, +0.760803, -0.180176, +0.732422, -10.681152, +14.419556
1491873298.613785, 1491873298.616211, -0.515076, +0.760803, -0.180176, +0.732422, -10.681152, +16.342163
1491873298.616481, 1491873298.618912, -0.515076, +0.760803, -0.180176, +1.953125, -13.870239, +16.342163
1491873298.619184, 1491873298.621543, -0.515076, +0.760803, -0.180176, +1.953125, -13.870239, +17.333984
1491873298.621807, 1491873298.624107, -0.488892, +0.785522, -0.013367, +3.280640, -18.341064, +17.333984
1491873298.624372, 1491873298.626678, -0.488892, +0.785522, -0.013367, +3.280640, -18.341064, +17.929077
1491873298.626942, 1491873298.629241, -0.488892, +0.785522, -0.013367, +3.707886, -21.713257, +17.929077
1491873298.629505, 1491873298.631870, -0.488892, +0.785522, -0.013367, +3.707886, -21.713257, +18.630981
1491873298.632135, 1491873298.634430, -0.333618, +0.897034, +0.117920, +3.295898, -23.391724, +18.630981
1491873298.634695, 1491873298.636993, -0.333618, +0.897034, +0.117920, +3.295898, -23.391724, +18.630981
1491873298.637257, 1491873298.639556, -0.333618, +0.897034, +0.117920, +2.624512, -23.651123, +19.302368
1491873298.639820, 1491873298.642120, -0.333618, +0.897034, +0.117920, +2.624512, -23.651123, +19.302368
1491873298.642384, 1491873298.644678, -0.166809, +0.997375, +0.120667, +2.471924, -21.484375, +18.463135
1491873298.644943, 1491873298.647240, -0.166809, +0.997375, +0.120667, +2.471924, -21.484375, +18.463135
1491873298.647505, 1491873298.649797, -0.166809, +0.997375, +0.120667, +2.380371, -19.104004, +17.303467
1491873298.650095, 1491873298.652522, -0.166809, +0.997375, +0.026917, +2.380371, -19.104004, +17.303467
1491873298.652794, 1491873298.655219, -0.055298, +1.132690, +0.002930, +1.602173, -15.838623, +15.136719
1491873298.655490, 1491873298.657914, -0.055298, +1.132690, +0.002930, +1.602173, -15.838623, +15.136719
1491873298.658187, 1491873298.660618, -0.055298, +1.132690, +0.002930, +0.366211, -10.650635, +12.649536
1491873298.660889, 1491873298.663315, -0.055298, +1.220215, -0.118652, +0.366211, -10.650635, +8.743286
1491873298.663585, 1491873298.666008, -0.002930, +1.220215, -0.118652, -1.037598, -5.279541, +10.955811
1491873298.666278, 1491873298.668704, -0.002930, +1.220215, -0.118652, -1.037598, -5.279541, +8.926392
1491873298.668969, 1491873298.671406, -0.002930, +1.220215, -0.118652, -3.128052, +1.419067, +8.926392
1491873298.671671, 1491873298.674100, -0.140808, +1.230652, -0.184204, -3.128052, +1.419067, +7.110596
1491873298.674364, 1491873298.676790, -0.140808, +1.230652, -0.184204, -3.479004, +11.917114, +7.110596
1491873298.677058, 1491873298.679483, -0.140808, +1.230652, -0.184204, -3.479004, +11.917114, +6.164551
1491873298.679751, 1491873298.682091, -0.140808, +1.230652, -0.184204, -2.502441, +26.718140, +6.164551
1491873298.682352, 1491873298.684648, -0.214417, +1.133057, -0.190979, -2.502441, +26.718140, +5.355835
1491873298.684909, 1491873298.687208, -0.214417, +1.133057, -0.190979, -1.602173, +35.491943, +5.355835
1491873298.687468, 1491873298.689769, -0.214417, +1.133057, -0.190979, -1.602173, +35.491943, +5.203247
1491873298.690029, 1491873298.692498, -0.214417, +1.133057, -0.190979, -1.998901, +35.186768, +5.203247
1491873298.692766, 1491873298.695190, -0.286194, +1.008728, -0.086243, -1.998901, +35.186768, +6.149292
1491873298.695461, 1491873298.697888, -0.286194, +1.008728, -0.086243, +0.991821, +37.475586, +6.149292
1491873298.698157, 1491873298.700591, -0.286194, +1.008728, -0.086243, +0.991821, +49.194336, +8.422852
1491873298.700860, 1491873298.703286, -0.286194, +1.008728, -0.039368, +4.043579, +47.515869, +8.422852
1491873298.703555, 1491873298.705978, -0.240784, +1.016968, -0.004944, +4.043579, +51.422119, +9.490967
1491873298.706248, 1491873298.708665, -0.240784, +1.016968, -0.004944, +2.410889, +52.825928, +9.490967
1491873298.708936, 1491873298.711378, -0.240784, +1.016968, -0.004944, +2.410889, +53.146362, +10.559082
1491873298.711649, 1491873298.714069, -0.240784, +1.091858, +0.097412, +1.403809, +53.146362, +10.559082
1491873298.714453, 1491873298.716885, -0.169189, +1.091858, +0.097412, +1.205444, +58.395386, +11.062622
1491873298.717157, 1491873298.719581, -0.169189, +1.091858, +0.097412, +1.205444, +58.395386, +11.062622
1491873298.719851, 1491873298.722197, -0.169189, +1.091858, +0.097412, -0.549316, +51.406860, +11.154175
1491873298.722463, 1491873298.724759, -0.178345, +1.175354, +0.138428, -0.549316, +51.406860, +11.154175
1491873298.725025, 1491873298.727322, -0.178345, +1.175354, +0.138428, -0.549316, +38.452148, +10.513306
1491873298.727587, 1491873298.729882, -0.178345, +1.175354, +0.138428, -0.518799, +38.452148, +10.513306
1491873298.730152, 1491873298.732584, -0.178345, +1.175354, +0.138428, -0.518799, +29.327393, +9.353638
1491873298.732854, 1491873298.735281, -0.311829, +1.182678, +0.126709, -0.503540, +29.327393, +9.353638
1491873298.735549, 1491873298.737978, -0.311829, +1.182678, +0.126709, -0.381470, +16.983032, +7.797241
1491873298.738244, 1491873298.740704, -0.311829, +1.182678, +0.126709, -0.381470, +16.983032, +7.797241
1491873298.740972, 1491873298.743399, -0.311829, +1.182678, +0.126709, -0.137329, +6.744385, +6.301880
1491873298.743664, 1491873298.746092, -0.388184, +1.112183, +0.125977, -0.137329, +6.744385, +6.301880
1491873298.746356, 1491873298.748778, -0.388184, +1.112183, +0.125977, -0.213623, -1.632690, +5.767822
1491873298.749042, 1491873298.751515, -0.388184, +1.112183, +0.125977, -0.213623, -1.632690, +5.767822
1491873298.751779, 1491873298.754209, -0.388184, +1.112183, +0.061707, -0.885010, -9.429932, +4.531860
1491873298.754475, 1491873298.756899, -0.370056, +1.041138, +0.061707, -0.885010, -9.429932, +4.531860
1491873298.757166, 1491873298.759592, -0.370056, +1.041138, +0.061707, -1.678467, -15.213013, +3.952026
1491873298.759860, 1491873298.762174, -0.370056, +1.041138, +0.061707, -1.678467, -15.213013, +3.952026
1491873298.762435, 1491873298.764738, -0.370056, +0.974121, -0.048889, -2.731323, -19.332886, +2.593994
1491873298.765000, 1491873298.767306, -0.297729, +0.974121, -0.048889, -2.731323, -19.332886, +2.593994
1491873298.767567, 1491873298.769864, -0.297729, +0.974121, -0.048889, -3.036499, -23.254395, +0.503540
1491873298.770116, 1491873298.772536, -0.297729, +0.974121, -0.048889, -3.036499, -23.254395, +0.503540
1491873298.772807, 1491873298.775235, -0.250854, +0.973938, -0.143188, -4.852295, -25.421143, -1.739502
1491873298.775503, 1491873298.777925, -0.240967, +0.973938, -0.143188, -4.852295, -25.421143, -1.739502
1491873298.778192, 1491873298.780621, -0.240967, +0.973938, -0.143188, -5.859375, -26.992798, -4.791260
1491873298.780890, 1491873298.783314, -0.240967, +0.973938, -0.143188, -5.859375, -26.992798, -4.791260
1491873298.783581, 1491873298.785997, -0.206177, +1.034180, -0.245361, -6.240845, -29.098511, -7.781982
1491873298.786266, 1491873298.788692, -0.206177, +1.034180, -0.245361, -6.240845, -29.098511, -7.781982
1491873298.788960, 1491873298.791392, -0.206177, +1.034180, -0.245361, -6.484985, -33.981323, -10.284424
1491873298.791662, 1491873298.794086, -0.206177, +1.034180, -0.245361, -6.484985, -33.981323, -10.284424
1491873298.794356, 1491873298.796783, -0.160034, +1.070251, -0.244080, -5.996704, -40.771484, -13.031006
1491873298.797053, 1491873298.799472, -0.160034, +1.070251, -0.244080, -5.996704, -40.771484, -13.031006
1491873298.799744, 1491873298.802078, -0.160034, +1.070251, -0.244080, -5.645752, -47.241211, -15.701294
1491873298.802344, 1491873298.804641, -0.160034, +1.070251, -0.244080, -5.645752, -47.241211, -15.701294
1491873298.804905, 1491873298.807204, -0.164795, +1.157410, -0.244080, -5.554199, -53.985596, -18.890381
1491873298.807467, 1491873298.809768, -0.164795, +1.157410, -0.244080, -5.554199, -53.985596, -18.890381
1491873298.810030, 1491873298.812515, -0.164795, +1.157410, -0.244080, -5.874634, -62.362671, -21.881104
1491873298.812786, 1491873298.815208, -0.164795, +1.157410, -0.279785, -5.874634, -62.362671, -21.881104
1491873298.815480, 1491873298.817906, -0.120117, +1.156128, -0.279785, -6.271362, -71.990967, -23.971558
1491873298.818285, 1491873298.820718, -0.120117, +1.156128, -0.279785, -6.271362, -71.990967, -23.971558
1491873298.820989, 1491873298.823414, -0.120117, +1.156128, -0.279785, -6.759644, -81.237793, -25.024414
1491873298.823685, 1491873298.826108, -0.120117, +0.926331, -0.430664, -6.759644, -81.237793, -25.024414
1491873298.826380, 1491873298.828802, -0.132385, +0.926331, -0.430664, -5.813599, -89.736938, -25.039673
1491873298.829076, 1491873298.831523, -0.132385, +0.926331, -0.430664, -5.813599, -89.736938, -25.039673
1491873298.831795, 1491873298.834216, -0.132385, +0.926331, -0.430664, -3.692627, -97.640991, -24.734497
1491873298.834487, 1491873298.836909, -0.330322, +0.775085, -0.533936, -3.692627, -97.640991, -24.734497
1491873298.837181, 1491873298.839608, -0.330322, +0.775085, -0.533936, +0.442505, -105.560303, -24.353027
1491873298.839880, 1491873298.842201, -0.330322, +0.775085, -0.533936, +0.442505, -105.560303, -20.446777
1491873298.842465, 1491873298.844768, -0.330322, +0.775085, -0.533936, +5.264282, -114.669800, -22.399902
1491873298.845032, 1491873298.847325, -0.453003, +0.855286, -0.481567, +5.264282, -114.669800, -22.399902
1491873298.847590, 1491873298.849889, -0.453003, +0.855286, -0.481567, +8.865356, -124.816895, -20.767212
1491873298.850163, 1491873298.852621, -0.453003, +0.855286, -0.481567, +8.865356, -124.816895, -20.767212
1491873298.852894, 1491873298.855317, -0.453003, +0.855286, -0.481567, +10.314941, -134.277344, -20.324707
1491873298.855591, 1491873298.858015, -0.261292, +1.097900, -0.338745, +10.314941, -134.277344, -20.324707
1491873298.858289, 1491873298.860727, -0.261292, +1.097900, -0.338745, +9.338379, -140.075684, -20.797729
1491873298.860999, 1491873298.863426, -0.261292, +1.097900, -0.338745, +9.338379, -140.075684, -21.789551
1491873298.863700, 1491873298.866132, -0.261292, +1.191650, -0.205444, +7.049561, -141.815186, -21.789551
1491873298.866404, 1491873298.868827, -0.003845, +1.172241, -0.205444, +7.049561, -141.815186, -23.239136
1491873298.869099, 1491873298.871461, -0.003845, +1.172241, -0.205444, +5.096436, -139.526367, -23.239136
1491873298.871725, 1491873298.874027, -0.003845, +1.172241, -0.205444, +5.096436, -139.526367, -26.000977
1491873298.874292, 1491873298.876590, -0.050720, +1.192749, -0.110046, +4.043579, -135.620117, -26.000977
1491873298.876855, 1491873298.879156, -0.080017, +1.192749, -0.110046, +4.043579, -135.620117, -29.632568
1491873298.879420, 1491873298.881755, -0.080017, +1.192749, -0.110046, +1.434326, -133.544922, -29.632568
1491873298.882020, 1491873298.884316, -0.080017, +1.192749, -0.110046, +1.434326, -133.544922, -34.790039
1491873298.884582, 1491873298.886887, -0.173767, +1.279724, +0.004211, -4.714966, -134.963989, -34.790039
1491873298.887151, 1491873298.889446, -0.171387, +1.279724, +0.004211, -4.714966, -134.963989, -42.602539
1491873298.889710, 1491873298.892143, -0.171387, +1.279724, +0.004211, -12.420654, -138.107300, -41.625977
1491873298.892417, 1491873298.894840, -0.171387, +1.279724, +0.004211, -12.420654, -138.107300, -45.532227
1491873298.895115, 1491873298.897538, +0.465454, +0.858032, +0.057861, -16.311646, -131.118774, -45.471191
1491873298.897813, 1491873298.900280, +0.465454, +0.858032, +0.057861, -16.311646, -131.118774, -46.966553
1491873298.900555, 1491873298.902981, +0.465454, +0.858032, +0.057861, -14.053345, -108.932495, -46.966553
1491873298.903255, 1491873298.905674, +0.465454, +0.858032, +0.057861, -14.053345, -108.932495, -48.126221
1491873298.905950, 1491873298.908377, +0.440552, +0.455750, -0.096863, -9.231567, -74.996948, -48.126221
1491873298.908651, 1491873298.911113, +0.440552, +0.455750, -0.096863, -9.231567, -39.840698, -50.796509
1491873298.911386, 1491873298.913808, +0.440552, +0.455750, -0.096863, -5.279541, -39.260864, -50.796509
1491873298.914081, 1491873298.916508, +0.440552, +0.455750, +0.090637, -5.279541, -10.391235, -53.466797
1491873298.916779, 1491873298.919202, -0.283447, +0.699280, +0.052368, -5.249023, -10.391235, -53.466797
1491873298.919474, 1491873298.921908, -0.283447, +0.699280, +0.052368, -9.155273, +8.987427, -54.824829
1491873298.922284, 1491873298.924718, -0.283447, +0.699280, +0.052368, -8.300781, +8.987427, -54.824829
1491873298.924986, 1491873298.927410, -0.283447, +0.909485, +0.422424, -14.221191, +17.150879, -55.801392
1491873298.927684, 1491873298.930123, -0.556824, +0.909485, +0.422424, -14.221191, +17.150879, -55.801392
1491873298.930390, 1491873298.932690, -0.556824, +0.909485, +0.422424, -21.865845, +15.579224, -55.664062
1491873298.932955, 1491873298.935249, -0.556824, +0.909485, +0.422424, -21.865845, +15.579224, -55.664062
1491873298.935515, 1491873298.937813, -0.396240, +1.159790, +0.598572, -29.006958, +11.199951, -54.016113
1491873298.938080, 1491873298.940402, -0.396240, +1.159790, +0.598572, -29.006958, +11.199951, -54.016113
1491873298.940676, 1491873298.943102, -0.396240, +1.159790, +0.598572, -34.729004, +13.290405, -52.688599
1491873298.943375, 1491873298.945803, -0.396240, +1.159790, +0.598572, -34.729004, +13.290405, -52.688599
1491873298.946077, 1491873298.948503, -0.269165, +1.381714, +0.376282, -36.514282, +19.165039, -54.641724
1491873298.948777, 1491873298.951212, -0.269165, +1.381714, +0.376282, -36.514282, +19.165039, -54.641724
1491873298.951485, 1491873298.953909, -0.269165, +1.381714, +0.376282, -39.138794, +20.095825, -58.578491
1491873298.954183, 1491873298.956612, -0.269165, +1.381714, +0.376282, -39.138794, +20.095825, -58.578491
1491873298.956885, 1491873298.959316, -0.370789, +1.667542, -0.000183, -43.487549, +15.106201, -60.958862
1491873298.959591, 1491873298.962018, -0.370789, +1.667542, -0.000183, -43.487549, +15.106201, -60.958862
1491873298.962293, 1491873298.964711, -0.370789, +1.667542, -0.000183, -47.042847, +7.751465, -63.430786
1491873298.964981, 1491873298.967411, -0.370789, +1.667542, -0.144287, -47.042847, +7.751465, -63.430786
1491873298.967682, 1491873298.970114, -0.303772, +1.490295, -0.144287, -50.445557, -0.244141, -67.062378
1491873298.970387, 1491873298.972818, -0.303772, +1.490295, -0.144287, -50.445557, -0.244141, -67.062378
1491873298.973089, 1491873298.975513, -0.303772, +1.490295, -0.144287, -53.604126, -7.598877, -70.175171
1491873298.975783, 1491873298.978205, -0.116272, +1.053223, -0.262939, -53.604126, -7.598877, -70.175171
1491873298.978477, 1491873298.980903, -0.122498, +1.053223, -0.262939, -55.755615, -9.994507, -70.159912
1491873298.981169, 1491873298.983460, -0.122498, +1.053223, -0.262939, -55.755615, -9.994507, -70.159912
1491873298.983726, 1491873298.986026, -0.122498, +1.053223, -0.262939, -55.755615, -9.597778, -70.251465
1491873298.986293, 1491873298.988592, -0.288391, +0.685913, -0.356689, -55.755615, -9.597778, -70.251465
1491873298.988856, 1491873298.991153, -0.288391, +0.685913, -0.356689, -54.016113, -9.658813, -70.205688
1491873298.991417, 1491873298.993720, -0.288391, +0.685913, -0.356689, -54.016113, -9.658813, -70.205688
1491873298.993984, 1491873298.996277, -0.288391, +0.685913, -0.356689, -50.598145, -12.878418, -70.388794
1491873298.996543, 1491873298.998831, -0.647461, +0.524414, -0.196106, -50.598145, -12.878418, -70.388794
1491873298.999096, 1491873299.001516, -0.647461, +0.524414, -0.196106, -49.606323, -19.729614, -68.450928
1491873299.001790, 1491873299.004214, -0.647461, +0.524414, -0.196106, -49.606323, -19.729614, -68.450928
1491873299.004488, 1491873299.006912, -0.647461, +0.524414, -0.196106, -52.200317, -31.478882, -67.337036
1491873299.007185, 1491873299.009613, -0.900146, +0.987671, +0.265869, -52.200317, -31.478882, -67.337036
1491873299.009891, 1491873299.012325, -0.900146, +0.987671, +0.265869, -57.617188, -43.457031, -64.254761
1491873299.012599, 1491873299.015031, -0.900146, +0.987671, +0.265869, -57.617188, -43.457031, -64.254761
1491873299.015304, 1491873299.017730, -0.900146, +0.987671, +0.265869, -63.125610, -51.467896, -58.380127
1491873299.018005, 1491873299.020431, -0.430298, +1.199707, +0.545105, -63.125610, -51.467896, -58.380127
1491873299.020707, 1491873299.023137, -0.430298, +1.199707, +0.545105, -67.474365, -50.537109, -54.794312
1491873299.023411, 1491873299.025833, -0.430298, +1.199707, +0.545105, -67.474365, -50.537109, -54.794312
1491873299.026213, 1491873299.028635, -0.430298, +1.293457, +0.559753, -68.954468, -41.580200, -51.971436
1491873299.028909, 1491873299.031285, -0.304321, +1.274597, +0.559753, -68.954468, -41.580200, -51.971436
1491873299.031551, 1491873299.033852, -0.304321, +1.274597, +0.559753, -69.717407, -31.967163, -49.255371
1491873299.034118, 1491873299.036419, -0.304321, +1.274597, +0.559753, -69.717407, -31.967163, -49.255371
1491873299.036685, 1491873299.038980, -0.398071, +1.285583, +0.450623, -70.281982, -26.947021, -47.042847
1491873299.039247, 1491873299.041633, -0.379578, +1.285583, +0.450623, -70.281982, -26.947021, -47.042847
1491873299.041908, 1491873299.044332, -0.379578, +1.285583, +0.450623, -71.212769, -23.559570, -44.311523
1491873299.044607, 1491873299.047033, -0.379578, +1.285583, +0.450623, -71.212769, -23.559570, -44.311523
1491873299.047306, 1491873299.049724, -0.331421, +0.939148, +0.255615, -69.534302, -18.661499, -40.664673
1491873299.049996, 1491873299.052427, -0.331421, +0.939148, +0.255615, -69.534302, -18.661499, -40.664673
1491873299.052700, 1491873299.055126, -0.331421, +0.939148, +0.255615, -66.436768, -9.643555, -36.392212
1491873299.055399, 1491873299.057825, -0.331421, +0.939148, +0.255615, -66.436768, -9.643555, -32.485962
1491873299.058096, 1491873299.060529, -0.565613, +0.475525, +0.086792, -63.095093, -0.656128, -32.516479
1491873299.060802, 1491873299.063225, -0.565613, +0.475525, +0.086792, -63.095093, -0.656128, -28.106689
1491873299.063497, 1491873299.065925, -0.565613, +0.475525, +0.086792, -59.814453, +4.440308, -28.106689
1491873299.066197, 1491873299.068616, -0.565613, +0.475525, -0.006958, -59.814453, +4.440308, -21.697998
1491873299.068890, 1491873299.071327, -0.957275, +0.022705, -0.035156, -53.558350, +6.851196, -21.697998
1491873299.071598, 1491873299.074023, -0.957275, +0.022705, -0.035156, -53.558350, +6.851196, -15.487671
1491873299.074295, 1491873299.076720, -0.957275, +0.022705, -0.035156, -45.562744, +6.851196, -15.487671
1491873299.076991, 1491873299.079417, -0.957275, -0.141541, -0.121399, -45.562744, +6.851196, -9.536743
1491873299.079686, 1491873299.082015, -1.062744, -0.141541, -0.121399, -34.713745, +4.013062, -9.536743
1491873299.082278, 1491873299.084580, -1.062744, -0.141541, -0.121399, -34.713745, -3.799438, -3.402710
1491873299.084842, 1491873299.087140, -1.062744, -0.141541, -0.121399, -24.841309, -0.671387, -3.402710
1491873299.087403, 1491873299.089700, -0.828369, +0.353760, -0.063904, -24.841309, -0.671387, +4.241943
1491873299.089962, 1491873299.092404, -0.808777, +0.353760, -0.063904, -12.634277, -5.355835, +4.241943
1491873299.092674, 1491873299.095102, -0.808777, +0.353760, -0.063904, -12.634277, -9.262085, +10.803223
1491873299.095374, 1491873299.097797, -0.808777, +0.353760, -0.063904, -2.151489, -8.605957, +10.803223
1491873299.098068, 1491873299.100509, -0.619995, +1.322388, +0.276123, -2.151489, -8.605957, +15.686035
1491873299.100777, 1491873299.103206, -0.619995, +1.322388, +0.276123, +6.530762, -10.787964, +15.686035
1491873299.103477, 1491873299.105898, -0.619995, +1.322388, +0.276123, +6.530762, -12.985229, +19.332886
1491873299.106168, 1491873299.108590, -0.619995, +1.322388, +0.276123, +14.114380, -12.985229, +19.332886
1491873299.108865, 1491873299.111325, -0.337097, +1.944397, +0.787354, +21.926880, -10.986328, +19.897461
1491873299.111599, 1491873299.114026, -0.337097, +1.944397, +0.787354, +22.064209, -10.986328, +19.897461
1491873299.114300, 1491873299.116727, -0.337097, +1.944397, +0.787354, +30.929565, -1.754761, +19.149780
1491873299.116999, 1491873299.119422, -0.337097, +1.944397, +0.927979, +30.929565, -1.754761, +19.149780
1491873299.119691, 1491873299.122130, -0.229797, +1.748657, +0.894287, +41.580200, +11.352539, +19.241333
1491873299.122403, 1491873299.124830, -0.229797, +1.748657, +0.894287, +41.580200, +11.352539, +19.241333
1491873299.125103, 1491873299.127526, -0.229797, +1.748657, +0.894287, +54.763794, +19.195557, +22.567749
1491873299.127800, 1491873299.130235, -0.229797, +1.625977, +0.711731, +54.763794, +19.195557, +22.567749
1491873299.130606, 1491873299.132898, -0.595276, +1.625977, +0.711731, +67.901611, +18.386841, +29.251099
1491873299.133164, 1491873299.135462, -0.595276, +1.625977, +0.711731, +67.901611, +18.386841, +29.251099
1491873299.135728, 1491873299.138031, -0.595276, +1.625977, +0.711731, +81.436157, +11.825562, +37.582397
1491873299.138298, 1491873299.140601, -0.829651, +1.688232, +0.449707, +81.436157, +11.825562, +37.582397
1491873299.140867, 1491873299.143163, -0.820129, +1.688232, +0.449707, +92.605591, +5.187988, +46.813965
1491873299.143428, 1491873299.145723, -0.820129, +1.688232, +0.449707, +92.605591, +5.187988, +46.813965
1491873299.145987, 1491873299.148283, -0.820129, +1.688232, +0.449707, +99.060059, +2.426147, +57.388306
1491873299.148548, 1491873299.150935, -0.668335, +1.905029, +0.504639, +99.060059, +2.426147, +57.388306
1491873299.151205, 1491873299.153626, -0.668335, +1.905029, +0.504639, +102.172852, +2.899170, +66.619873
1491873299.153897, 1491873299.156319, -0.668335, +1.905029, +0.504639, +102.172852, +2.899170, +66.619873
1491873299.156589, 1491873299.159018, -0.668335, +1.905029, +0.504639, +102.325439, +5.065918, +74.752808
1491873299.159288, 1491873299.161719, -0.539978, +2.173462, +0.645264, +102.325439, +5.065918, +74.752808
1491873299.161991, 1491873299.164421, -0.539978, +2.173462, +0.645264, +104.522705, +9.338379, +84.411621
1491873299.164696, 1491873299.167120, -0.539978, +2.173462, +0.645264, +104.522705, +9.338379, +84.411621
1491873299.167391, 1491873299.169816, -0.539978, +2.173462, +0.645264, +105.102539, +15.258789, +93.780518
1491873299.170098, 1491873299.172523, -0.316589, +2.516968, +0.756592, +105.102539, +15.258789, +93.780518
1491873299.172797, 1491873299.175223, -0.316589, +2.516968, +0.756592, +104.690552, +17.913818, +102.416992
1491873299.175497, 1491873299.177925, -0.316589, +2.516968, +0.756592, +104.690552, +17.913818, +102.416992
1491873299.178199, 1491873299.180628, -0.316589, +2.516968, +0.762817, +102.416992, +14.221191, +113.265991
1491873299.180901, 1491873299.183322, -0.116272, +2.758301, +0.762817, +102.416992, +14.221191, +113.265991
1491873299.183596, 1491873299.186022, -0.116272, +2.758301, +0.762817, +101.593018, +4.013062, +123.550415
1491873299.186293, 1491873299.188716, -0.116272, +2.758301, +0.762817, +101.593018, +4.013062, +123.550415
1491873299.188988, 1491873299.191344, +0.399353, +3.005127, +0.509949, +103.576660, -14.373779, +140.502930
1491873299.191611, 1491873299.193910, +0.376099, +3.005127, +0.509949, +103.576660, -14.373779, +140.502930
1491873299.194177, 1491873299.196475, +0.376099, +3.005127, +0.509949, +102.828979, -38.742065, +163.085938
1491873299.196742, 1491873299.199035, +0.376099, +3.005127, +0.509949, +102.828979, -38.742065, +163.085938
1491873299.199301, 1491873299.201721, +0.933105, +3.138977, +0.174683, +99.945068, -61.233521, +195.007324
1491873299.201993, 1491873299.204399, +0.933105, +3.138977, +0.174683, +99.945068, -61.233521, +195.007324
1491873299.204672, 1491873299.207085, +0.933105, +3.138977, +0.174683, +95.336914, -72.647095, +219.970703
1491873299.207358, 1491873299.209764, +0.933105, +3.138977, +0.174683, +95.336914, -72.647095, +219.970703
1491873299.210036, 1491873299.212485, +1.534607, +3.032410, -0.055298, +90.270996, -59.799194, +232.299805
1491873299.212759, 1491873299.215171, +1.534607, +3.032410, -0.055298, +90.270996, -59.799194, +232.299805
1491873299.215444, 1491873299.217852, +1.534607, +3.032410, -0.055298, +91.354370, -13.641357, +235.107422
1491873299.218125, 1491873299.220543, +1.534607, +3.032410, -0.055298, +91.354370, -13.641357, +235.107422
1491873299.220817, 1491873299.223228, +1.845703, +3.109131, -0.652771, +66.574097, +31.204224, +227.752686
1491873299.223500, 1491873299.225905, +1.845703, +3.109131, -0.652771, +66.574097, +31.204224, +227.752686
1491873299.226178, 1491873299.228590, +1.845703, +3.109131, -0.652771, +36.773682, +58.822632, +206.649780
1491873299.228860, 1491873299.231291, +1.845703, +3.109131, -0.047058, +36.773682, +58.822632, +191.024780
1491873299.231674, 1491873299.234062, +0.260925, +2.524475, -0.047058, +8.819580, +70.922852, +189.331055
1491873299.234332, 1491873299.236719, +0.260925, +2.524475, -0.047058, +8.819580, +70.922852, +146.362305
1491873299.236990, 1491873299.239373, +0.260925, +2.524475, -0.047058, -11.581421, +101.867676, +144.958496
1491873299.239646, 1491873299.242074, -3.348450, +3.154175, -0.441467, -11.581421, +101.867676, +65.872192
1491873299.242340, 1491873299.244643, -3.373169, +3.154175, -0.441467, -10.910034, +102.584839, +65.872192
1491873299.244908, 1491873299.247204, -3.373169, +3.154175, -0.441467, -10.910034, +102.584839, +73.684692
1491873299.247470, 1491873299.249772, -3.373169, +3.154175, -0.441467, -36.956787, +33.691406, +71.670532
1491873299.250077, 1491873299.252494, -4.850647, +0.369690, -1.541931, -36.956787, +33.691406, +67.764282
1491873299.252768, 1491873299.255192, -4.850647, +0.369690, -1.541931, -30.929565, -30.288696, +69.686890
1491873299.255464, 1491873299.257890, -4.850647, +0.369690, -1.541931, -30.929565, -30.288696, +27.481079
1491873299.258162, 1491873299.260596, -4.850647, +0.369690, -1.541931, +6.500244, -83.511353, +27.481079
1491873299.260866, 1491873299.263288, -4.255554, +0.419678, -0.992249, +6.500244, -83.511353, +9.475708
1491873299.263555, 1491873299.265984, -4.255554, +0.419678, -0.992249, -2.120972, -103.744507, +9.475708
1491873299.266254, 1491873299.268674, -4.255554, +0.419678, -0.992249, -2.120972, -99.838257, +13.244629
1491873299.268945, 1491873299.271389, -4.255554, +0.419678, -0.992249, -19.683838, -100.723267, +13.244629
1491873299.271663, 1491873299.274084, -1.042969, +0.081848, -0.779114, -19.683838, -74.768066, -5.783081
1491873299.274354, 1491873299.276777, -1.042969, +0.081848, -0.779114, -4.791260, -74.768066, -5.783081
1491873299.277045, 1491873299.279476, -1.042969, +0.081848, -0.779114, -4.791260, -25.405884, -34.133911
1491873299.279748, 1491873299.282081, -1.042969, +0.691223, -0.352844, +7.919312, -25.405884, -34.133911
1491873299.282346, 1491873299.284646, +0.129639, +0.691406, -0.352844, +7.919312, -0.946045, -52.337646
1491873299.284909, 1491873299.287207, +0.129639, +0.691406, -0.352844, +1.083374, -0.946045, -52.337646
1491873299.287467, 1491873299.289765, +0.129639, +0.691406, -0.352844, +1.083374, +10.772705, -66.436768
1491873299.290029, 1491873299.292511, +0.129639, +0.136047, +0.047791, -5.996704, +7.858276, -66.436768
1491873299.292781, 1491873299.295200, -0.058228, +0.136047, +0.047791, -5.996704, +18.386841, -76.965332
1491873299.295471, 1491873299.297894, -0.058228, +0.136047, +0.047791, -4.226685, +18.386841, -76.965332
1491873299.298165, 1491873299.300600, -0.058228, +0.136047, +0.047791, -0.320435, +32.058716, -80.749512
1491873299.300872, 1491873299.303295, -0.091003, -0.065002, -0.081665, -2.304077, +32.058716, -80.749512
1491873299.303566, 1491873299.305986, -0.091003, -0.065002, -0.081665, -2.304077, +42.633057, -76.766968
1491873299.306258, 1491873299.308677, -0.091003, -0.065002, -0.081665, -1.861572, +42.633057, -76.766968
1491873299.308947, 1491873299.311383, -0.091003, -0.065002, -0.081665, -1.419067, +49.865723, -68.679810
1491873299.311655, 1491873299.314084, +0.004578, -0.118286, -0.255981, -1.419067, +49.865723, -68.679810
1491873299.314356, 1491873299.316778, +0.004578, -0.118286, -0.255981, -1.312256, +53.802490, -60.287476
1491873299.317051, 1491873299.319470, +0.004578, -0.118286, -0.255981, -1.312256, +53.802490, -60.287476
1491873299.319742, 1491873299.322074, +0.004578, -0.118286, -0.255981, +0.183105, +54.748535, -52.291870
1491873299.322340, 1491873299.324636, +0.151245, -0.234009, -0.250671, +0.183105, +54.748535, -52.291870
1491873299.324899, 1491873299.327202, +0.151245, -0.234009, -0.250671, +3.570557, +48.385620, -44.601440
1491873299.327466, 1491873299.329769, +0.151245, -0.234009, -0.250671, +3.570557, +48.385620, -44.601440
1491873299.330033, 1491873299.332497, +0.151245, -0.234009, -0.063171, +5.371094, +34.988403, -37.170410
1491873299.332769, 1491873299.335202, -0.172302, -0.170288, -0.055481, +5.371094, +34.988403, -37.170410
1491873299.335582, 1491873299.338003, -0.172302, -0.170288, -0.055481, +5.187988, +17.089844, -29.434204
1491873299.338274, 1491873299.340715, -0.172302, -0.170288, -0.055481, +5.187988, +17.089844, -29.434204
1491873299.340987, 1491873299.343416, -0.172302, -0.102905, +0.126892, +2.502441, +0.411987, -21.362305
1491873299.343686, 1491873299.346105, -0.398438, -0.102905, +0.126892, +2.502441, +0.411987, -21.362305
1491873299.346375, 1491873299.348800, -0.398438, -0.102905, +0.126892, -0.610352, -13.244629, -12.756348
1491873299.349074, 1491873299.351511, -0.398438, -0.102905, +0.126892, -0.610352, -13.244629, -12.756348
1491873299.351783, 1491873299.354205, -0.344788, -0.066650, +0.087708, -2.792358, -24.887085, -4.470825
1491873299.354474, 1491873299.356898, -0.344788, -0.066650, +0.087708, -2.792358, -24.887085, -4.470825
1491873299.357167, 1491873299.359583, -0.344788, -0.066650, +0.087708, -2.639771, -35.858154, +3.204346
1491873299.359854, 1491873299.362206, -0.344788, -0.066650, +0.087708, -2.639771, -35.858154, +3.204346
1491873299.362468, 1491873299.364767, -0.072327, -0.010803, -0.039734, -1.617432, -44.113159, +9.262085
1491873299.365030, 1491873299.367325, -0.072327, -0.010803, -0.039734, -1.617432, -44.113159, +9.262085
1491873299.367587, 1491873299.369889, -0.072327, -0.010803, -0.039734, -1.083374, -46.493530, +15.823364
1491873299.370158, 1491873299.372584, -0.072327, -0.010803, -0.039734, -1.083374, -46.493530, +15.823364
1491873299.372855, 1491873299.375277, +0.286560, +0.034241, -0.062805, +0.442505, -45.074463, +22.262573
1491873299.375549, 1491873299.377979, +0.286560, +0.034241, -0.062805, +0.442505, -45.074463, +22.262573
1491873299.378251, 1491873299.380683, +0.286560, +0.034241, -0.062805, +1.327515, -42.053223, +27.572632
1491873299.380954, 1491873299.383377, +0.286560, +0.034241, -0.001282, +1.327515, -42.053223, +27.572632
1491873299.383650, 1491873299.386074, +0.585205, -0.029663, -0.001282, +2.120972, -38.589478, +32.913208
1491873299.386349, 1491873299.388779, +0.585205, -0.029663, -0.001282, +2.120972, -38.589478, +32.913208
1491873299.389052, 1491873299.391518, +0.585205, -0.029663, -0.001282, +2.990723, -33.508301, +36.834717
1491873299.391791, 1491873299.394219, +0.585205, -0.182190, +0.029297, +2.990723, -33.508301, +36.834717
1491873299.394492, 1491873299.396913, +0.664124, -0.182190, +0.029297, +6.515503, -27.557373, +39.184570
1491873299.397184, 1491873299.399611, +0.664124, -0.182190, +0.029297, +6.515503, -27.557373, +39.184570
1491873299.399883, 1491873299.402202, +0.664124, -0.182190, +0.029297, +9.887695, -20.629883, +40.725708
1491873299.402469, 1491873299.404766, +0.543823, -0.194458, +0.046692, +9.887695, -20.629883, +40.725708
1491873299.405029, 1491873299.407333, +0.543823, -0.194458, +0.046692, +12.191772, -12.435913, +41.702271
1491873299.407601, 1491873299.409901, +0.543823, -0.194458, +0.046692, +12.191772, -12.435913, +41.702271
1491873299.410163, 1491873299.412459, +0.543823, -0.194458, +0.046692, +13.732910, -3.067017, +41.793823
1491873299.412723, 1491873299.415022, +0.365662, -0.070312, +0.036621, +13.732910, -3.067017, +41.793823
1491873299.415286, 1491873299.417579, +0.365662, -0.070312, +0.036621, +13.839722, +5.981445, +41.717529
1491873299.417845, 1491873299.420169, +0.365662, -0.070312, +0.036621, +13.839722, +5.981445, +41.717529
1491873299.420442, 1491873299.422863, +0.365662, -0.070312, +0.036621, +14.678955, +13.687134, +42.526245
1491873299.423138, 1491873299.425568, +0.174683, -0.039917, -0.004578, +14.678955, +13.687134, +42.526245
1491873299.425841, 1491873299.428267, +0.174683, -0.039917, -0.004578, +15.090942, +19.393921, +43.487549
1491873299.428542, 1491873299.430981, +0.174683, -0.039917, -0.004578, +15.090942, +19.393921, +43.487549
1491873299.431255, 1491873299.433679, +0.174683, -0.039917, -0.004578, +16.448975, +23.376465, +44.067383
1491873299.433956, 1491873299.436384, +0.053101, -0.014648, -0.001465, +16.448975, +23.376465, +44.067383
1491873299.436657, 1491873299.439079, +0.053101, -0.014648, -0.001465, +17.654419, +26.245117, +44.555664
1491873299.439463, 1491873299.441901, +0.053101, -0.014648, -0.001465, +17.654419, +26.245117, +44.143677
1491873299.442176, 1491873299.444596, +0.053101, +0.032227, +0.024719, +18.524170, +29.357910, +44.143677
1491873299.444871, 1491873299.447292, -0.020142, +0.023438, +0.024719, +18.524170, +29.357910, +43.167114
1491873299.447566, 1491873299.449992, -0.020142, +0.023438, +0.024719, +18.325806, +33.508301, +43.167114
1491873299.450326, 1491873299.452745, -0.020142, +0.023438, +0.024719, +18.325806, +37.414551, +41.015625
1491873299.453021, 1491873299.455437, -0.064819, +0.050354, +0.049988, +18.768311, +37.826538, +41.015625
1491873299.455713, 1491873299.458140, -0.064819, +0.050354, +0.049988, +18.768311, +45.639038, +38.833618
1491873299.458414, 1491873299.460842, -0.064819, +0.050354, +0.049988, +18.814087, +43.304443, +38.833618
1491873299.461108, 1491873299.463404, -0.064819, +0.050354, +0.049988, +18.814087, +49.133301, +36.361694
1491873299.463670, 1491873299.465970, -0.044128, +0.081665, +0.079285, +17.745972, +49.133301, +36.361694
1491873299.466235, 1491873299.468534, -0.044128, +0.081665, +0.079285, +17.745972, +56.945801, +35.003662
1491873299.468800, 1491873299.471194, -0.044128, +0.081665, +0.079285, +15.533447, +55.969238, +35.003662
1491873299.471468, 1491873299.473894, -0.044128, +0.081665, +0.079285, +15.533447, +63.781738, +33.096313
1491873299.474168, 1491873299.476588, +0.094849, +0.073425, +0.098145, +13.610840, +64.041138, +33.096313
1491873299.476864, 1491873299.479295, +0.094849, +0.073425, +0.098145, +13.610840, +72.845459, +31.066895
1491873299.479568, 1491873299.482010, +0.094849, +0.073425, +0.098145, +12.039185, +72.845459, +31.066895
1491873299.482285, 1491873299.484717, +0.094849, +0.073425, +0.098145, +8.132935, +81.939697, +29.891968
1491873299.484988, 1491873299.487412, +0.247192, +0.019226, +0.099792, +11.001587, +81.939697, +29.891968
1491873299.487686, 1491873299.490118, +0.247192, +0.019226, +0.099792, +10.101318, +92.468262, +28.732300
1491873299.490395, 1491873299.492826, +0.247192, +0.019226, +0.099792, +10.101318, +92.468262, +28.732300
1491873299.493099, 1491873299.495528, +0.247192, -0.029663, +0.097412, +9.735107, +101.837158, +27.114868
1491873299.495800, 1491873299.498220, +0.341125, -0.029663, +0.097412, +9.735107, +101.837158, +27.114868
1491873299.498493, 1491873299.500893, +0.341125, -0.029663, +0.097412, +9.811401, +108.810425, +24.887085
1491873299.501159, 1491873299.503458, +0.341125, -0.029663, +0.097412, +9.811401, +108.810425, +24.887085
1491873299.503722, 1491873299.506020, +0.348450, -0.000549, +0.062439, +10.665894, +113.891602, +22.293091
1491873299.506288, 1491873299.508589, +0.348450, -0.000549, +0.062439, +10.665894, +113.891602, +22.293091
1491873299.508856, 1491873299.511157, +0.348450, -0.000549, +0.062439, +9.887695, +117.218018, +19.775391
1491873299.511424, 1491873299.513724, +0.348450, -0.000549, +0.062439, +9.887695, +117.218018, +19.775391
1491873299.513989, 1491873299.516286, +0.265137, +0.070129, +0.045593, +9.887695, +118.911743, +18.402100
1491873299.516551, 1491873299.518899, +0.265137, +0.070129, +0.045593, +7.980347, +118.911743, +18.402100
1491873299.519165, 1491873299.521471, +0.265137, +0.070129, +0.045593, +4.074097, +119.461060, +18.234253
1491873299.521734, 1491873299.524027, +0.265137, +0.070129, +0.045593, +5.905151, +119.461060, +18.234253
1491873299.524292, 1491873299.526590, +0.122864, +0.111145, +0.042664, +5.905151, +118.789673, +18.753052
1491873299.526855, 1491873299.529150, +0.122864, +0.111145, +0.042664, +2.700806, +118.789673, +18.753052
1491873299.529414, 1491873299.531806, +0.122864, +0.111145, +0.042664, +2.700806, +118.789673, +19.714355
1491873299.532079, 1491873299.534510, +0.122864, +0.111145, +0.042664, +0.137329, +117.294312, +19.714355
1491873299.534783, 1491873299.537204, -0.057129, +0.144104, +0.015564, +0.137329, +113.998413, +20.584106
1491873299.537478, 1491873299.539898, -0.057129, +0.144104, +0.015564, -2.380371, +113.998413, +20.584106
1491873299.540315, 1491873299.542743, -0.057129, +0.144104, +0.015564, -4.486084, +110.107422, +22.033691
1491873299.543015, 1491873299.545438, -0.057129, +0.144104, +0.015564, -4.486084, +110.107422, +22.033691
1491873299.545711, 1491873299.548138, -0.191895, +0.169373, -0.023438, -6.408691, +105.239868, +22.933960
1491873299.548410, 1491873299.550883, -0.191895, +0.169373, -0.023438, -6.408691, +105.239868, +22.933960
1491873299.551155, 1491873299.553582, -0.191895, +0.169373, -0.023438, -6.942749, +97.656250, +23.468018
1491873299.553853, 1491873299.556278, -0.191895, +0.122498, -0.156555, -6.942749, +97.656250, +23.468018
1491873299.556550, 1491873299.558972, -0.286011, +0.140442, -0.156555, -6.515503, +89.935303, +22.171021
1491873299.559245, 1491873299.561707, -0.286011, +0.140442, -0.156555, -6.515503, +89.935303, +22.171021
1491873299.561979, 1491873299.564408, -0.286011, +0.140442, -0.156555, -4.425049, +82.046509, +19.897461
1491873299.564678, 1491873299.567101, -0.400818, +0.052185, -0.284729, -4.425049, +82.046509, +19.897461
1491873299.567374, 1491873299.569804, -0.400818, +0.052185, -0.284729, -0.106812, +71.548462, +17.517090
1491873299.570087, 1491873299.572388, -0.400818, +0.052185, -0.284729, -0.106812, +71.548462, +17.517090
1491873299.572655, 1491873299.574952, -0.400818, +0.052185, -0.284729, +3.387451, +61.370850, +14.282227
1491873299.575216, 1491873299.577517, -0.523315, +0.048523, -0.286011, +3.387451, +61.370850, +14.282227
1491873299.577781, 1491873299.580114, -0.523315, +0.048523, -0.286011, +4.455566, +49.438477, +8.636475
1491873299.580384, 1491873299.582789, -0.523315, +0.048523, -0.286011, +4.455566, +49.438477, +8.636475
1491873299.583057, 1491873299.585474, -0.523315, +0.048523, -0.286011, +4.837036, +29.083252, +0.701904
1491873299.585741, 1491873299.588149, -0.552979, +0.088806, -0.281067, +4.837036, +29.083252, +0.701904
1491873299.588419, 1491873299.590878, -0.552979, +0.088806, -0.281067, +4.180908, +4.974365, -7.949829
1491873299.591142, 1491873299.593549, -0.552979, +0.088806, -0.281067, +4.180908, +4.974365, -7.949829
1491873299.593813, 1491873299.596221, -0.552979, +0.088806, -0.281067, +1.190186, -19.744873, -15.487671
1491873299.596491, 1491873299.598902, -0.404846, +0.194824, -0.165894, +1.190186, -19.744873, -15.487671
1491873299.599172, 1491873299.601588, -0.404846, +0.194824, -0.165894, -4.638672, -41.625977, -22.277832
1491873299.601857, 1491873299.604268, -0.404846, +0.194824, -0.165894, -4.638672, -41.625977, -22.277832
1491873299.604538, 1491873299.606953, -0.404846, +0.476074, +0.052917, -13.031006, -64.270020, -28.350830
1491873299.607228, 1491873299.609635, -0.334351, +0.480286, +0.052917, -13.031006, -64.270020, -28.350830
1491873299.609908, 1491873299.612313, -0.334351, +0.480286, +0.052917, -25.924683, -90.759277, -33.920288
1491873299.612585, 1491873299.614971, -0.334351, +0.480286, +0.052917, -25.924683, -90.759277, -33.920288
1491873299.615244, 1491873299.617625, -0.287476, +0.842102, +0.610474, -40.435791, -108.062744, -38.696289
1491873299.617896, 1491873299.620483, -0.322632, +0.842102, +0.610474, -40.435791, -108.062744, -38.696289
1491873299.620754, 1491873299.623053, -0.322632, +0.842102, +0.610474, -48.873901, -114.822388, -46.035767
1491873299.623320, 1491873299.625618, -0.322632, +0.842102, +0.610474, -48.873901, -114.822388, -46.035767
1491873299.625884, 1491873299.628186, -0.730042, +0.674927, +0.644348, -51.406860, -119.552612, -55.160522
1491873299.628452, 1491873299.630755, -0.730042, +0.674927, +0.644348, -51.406860, -119.552612, -55.160522
1491873299.631022, 1491873299.633325, -0.730042, +0.674927, +0.644348, -48.934937, -114.776611, -63.934326
1491873299.633592, 1491873299.635883, -0.730042, +0.674927, +0.644348, -48.934937, -114.776611, -63.934326
1491873299.636148, 1491873299.638445, -0.622742, +0.210022, +0.655518, -44.723511, -94.223022, -71.792603
1491873299.638711, 1491873299.641114, -0.622742, +0.210022, +0.655518, -44.723511, -94.223022, -71.792603
1491873299.641388, 1491873299.643815, -0.622742, +0.210022, +0.655518, -44.433594, -49.530029, -85.906982
1491873299.644220, 1491873299.646628, -0.622742, +0.210022, +0.655518, -44.433594, -49.530029, -85.906982
1491873299.646902, 1491873299.649329, -3.731689, +0.421692, +1.232300, -55.038452, +7.186890, -133.285522
1491873299.649598, 1491873299.652032, -3.731689, +0.421692, +1.232300, -55.038452, +7.186890, -133.285522
1491873299.652300, 1491873299.654733, -3.731689, +0.421692, +1.232300, -110.244751, +79.132080, -192.199707
1491873299.655006, 1491873299.657440, -3.731689, +0.421692, +2.614929, -110.244751, +79.132080, -317.199707
1491873299.657714, 1491873299.660155, -5.998535, +2.828064, +2.614929, -155.090332, +169.754028, -318.984985
1491873299.660428, 1491873299.662848, -5.998535, +2.828064, +2.614929, -155.090332, +169.754028, -341.232300
1491873299.663154, 1491873299.665582, -5.998535, +2.828064, +2.614929, -216.278076, +206.481934, -341.232300
1491873299.665852, 1491873299.668269, -5.998535, +5.998535, +1.889099, -216.278076, +206.481934, -70.053101
1491873299.668541, 1491873299.670936, -0.639954, +5.998535, +1.889099, -178.573608, -17.211914, -70.053101
1491873299.671203, 1491873299.673497, -0.639954, +5.998535, +1.889099, -178.573608, -17.211914, -14.862061
1491873299.673764, 1491873299.676063, -0.639954, +5.998535, +1.889099, +61.416626, +38.635254, -14.862061
1491873299.676327, 1491873299.678624, +5.998535, +4.610962, -3.432312, +61.416626, +38.635254, -35.278320
1491873299.678888, 1491873299.681298, +5.998535, +4.610962, -3.432312, -95.626831, +145.553589, -35.278320
1491873299.681566, 1491873299.683980, +5.998535, +4.610962, -3.432312, -95.626831, +145.553589, -109.329224
1491873299.684249, 1491873299.686650, +5.998535, +4.610962, -3.432312, -211.547852, +75.225830, -109.329224
1491873299.686919, 1491873299.689323, +3.448975, -2.022583, -3.332886, -211.547852, +75.225830, -68.969727
1491873299.689592, 1491873299.692007, +3.448975, -2.022583, -3.332886, -54.199219, -15.075684, -68.969727
1491873299.692277, 1491873299.694747, +3.448975, -2.022583, -3.332886, -54.199219, +117.736816, -30.242920
1491873299.695029, 1491873299.697433, +3.448975, -2.022583, -3.332886, +14.450073, +118.469238, -30.242920
1491873299.697705, 1491873299.700122, -2.721680, -2.889404, -1.859802, +14.450073, +251.281738, -24.917603
1491873299.700392, 1491873299.702798, -2.721680, -2.889404, -1.859802, +39.794922, +251.007080, -24.917603
1491873299.703067, 1491873299.705477, -2.721680, -2.889404, -1.859802, +39.794922, +129.165649, -23.086548
1491873299.705746, 1491873299.708153, -2.721680, -2.889404, -1.290894, +27.008057, +129.165649, -23.086548
1491873299.708423, 1491873299.710830, -2.602844, +4.824829, -1.290894, -19.866943, +26.977539, -20.797729
1491873299.711094, 1491873299.713392, -2.602844, +4.824829, -1.290894, -22.094727, +26.977539, -20.797729
1491873299.713655, 1491873299.715951, -2.602844, +4.824829, -1.290894, -22.094727, +0.305176, -85.327148
1491873299.716213, 1491873299.718628, -2.602844, +5.996704, +1.643005, -107.421875, +0.305176, -85.327148
1491873299.718912, 1491873299.721326, +3.230530, +5.998535, +1.643005, -95.703125, +69.625854, -108.459473
1491873299.721599, 1491873299.724027, +3.230530, +5.998535, +1.643005, -95.031738, +69.625854, -108.459473
1491873299.724298, 1491873299.726725, +3.230530, +5.998535, +1.643005, -180.969238, +16.906738, -156.066895
1491873299.726996, 1491873299.729421, +2.759216, +1.560242, -0.274658, -180.465698, +16.906738, -156.066895
1491873299.729694, 1491873299.732027, +2.759216, +1.560242, -0.274658, -99.319458, +75.775146, -112.899780
1491873299.732293, 1491873299.734592, +2.759216, +1.560242, -0.274658, -99.319458, +75.775146, -112.899780
1491873299.734857, 1491873299.737151, +2.759216, +1.560242, -0.274658, +10.055542, +80.718994, -61.340332
1491873299.737418, 1491873299.739718, -4.623230, -3.662292, +0.395874, +10.543823, +80.718994, -61.340332
1491873299.739983, 1491873299.742283, -4.623230, -3.662292, +0.395874, +10.543823, +10.101318, -106.460571
1491873299.742550, 1491873299.744842, -4.623230, -3.662292, +0.395874, +12.512207, +10.101318, -106.460571
1491873299.745108, 1491873299.747403, -4.623230, -3.662292, +0.395874, +12.512207, -75.836182, -62.026978
1491873299.747794, 1491873299.750235, -1.230652, +1.279175, +0.044861, +33.065796, -75.576782, -62.026978
1491873299.750500, 1491873299.752805, -1.230652, +1.279175, +0.044861, +33.065796, -83.404541, -26.260376
1491873299.753071, 1491873299.755373, -1.230652, +1.279175, +0.044861, -1.846313, -83.404541, -26.260376
1491873299.755636, 1491873299.757940, -1.230652, +1.279175, +0.044861, -1.846313, -44.342041, -10.009766
1491873299.758202, 1491873299.760512, -0.229065, +0.029663, +1.060730, +5.737305, -45.089722, -10.009766
1491873299.760777, 1491873299.763074, -0.229065, +0.029663, +1.060730, +5.737305, -2.120972, -11.627197
1491873299.763334, 1491873299.765626, -0.229065, +0.029663, +1.060730, +14.678955, -1.785278, -11.627197
1491873299.765889, 1491873299.768187, -0.229065, +0.029663, +1.060730, +14.678955, -1.785278, -9.338379
1491873299.768447, 1491873299.770889, -0.707886, +0.247742, +1.461365, +16.662598, +6.881714, -9.338379
1491873299.771159, 1491873299.773572, -0.707886, +0.247742, +1.461365, +16.662598, +14.694214, -0.808716
1491873299.773843, 1491873299.776255, -0.707886, +0.247742, +1.461365, +20.660400, +11.886597, -0.808716
1491873299.776527, 1491873299.778937, -0.707886, +0.247742, +1.180115, +20.660400, +19.699097, +8.132935
1491873299.779206, 1491873299.781617, -0.626770, +0.061707, +1.217285, +27.465820, +23.315430, +8.132935
1491873299.781889, 1491873299.784292, -0.626770, +0.061707, +1.217285, +27.465820, +27.175903, +18.432617
1491873299.784563, 1491873299.786970, -0.626770, +0.061707, +1.217285, +32.394409, +27.175903, +18.432617
1491873299.787243, 1491873299.789651, -0.626770, +0.483582, +0.521301, +32.394409, +28.091431, +28.793335
1491873299.789922, 1491873299.792335, -0.680786, +0.511597, +0.521301, +33.126831, +28.091431, +28.793335
1491873299.792606, 1491873299.795016, -0.680786, +0.511597, +0.521301, +33.126831, +29.205322, +36.880493
1491873299.795288, 1491873299.797698, -0.680786, +0.511597, +0.521301, +34.500122, +29.205322, +36.880493
1491873299.797969, 1491873299.800390, -0.999756, +0.598389, -0.070129, +38.406372, +22.674561, +44.815063
1491873299.800664, 1491873299.803072, -0.999756, +0.598389, -0.070129, +36.529541, +22.674561, +44.815063
1491873299.803346, 1491873299.805756, -0.999756, +0.598389, -0.070129, +38.024902, +12.435913, +54.046631
1491873299.806028, 1491873299.808434, -0.999756, +0.598389, -0.070129, +38.024902, +12.435913, +54.046631
1491873299.808707, 1491873299.811120, -0.885498, +0.608276, -0.358337, +40.679932, +4.074097, +61.737061
1491873299.811388, 1491873299.813774, -0.885498, +0.608276, -0.358337, +40.679932, +4.074097, +61.737061
1491873299.814043, 1491873299.816426, -0.885498, +0.608276, -0.358337, +44.601440, -3.067017, +68.603516
1491873299.816694, 1491873299.819409, -0.885498, +0.608276, -0.358337, +44.601440, -3.067017, +68.603516
1491873299.819689, 1491873299.822130, -0.591431, +0.828186, -0.289856, +49.240112, -8.270264, +73.593140
1491873299.822404, 1491873299.824826, -0.591431, +0.828186, -0.289856, +49.240112, -8.270264, +73.593140
1491873299.825100, 1491873299.827522, -0.591431, +0.828186, -0.289856, +49.468994, -7.843018, +77.194214
1491873299.827794, 1491873299.830216, -0.591431, +1.296936, -0.129639, +49.468994, -7.843018, +77.194214
1491873299.830489, 1491873299.832909, -0.361633, +1.290894, -0.129639, +45.013428, -3.311157, +79.620361
1491873299.833180, 1491873299.835601, -0.361633, +1.290894, -0.129639, +45.013428, -3.311157, +79.620361
1491873299.835871, 1491873299.838296, -0.361633, +1.290894, -0.129639, +39.794922, +0.732422, +78.765869
1491873299.838568, 1491873299.841002, -0.232727, +1.454224, -0.077637, +39.794922, +0.732422, +78.765869
1491873299.841275, 1491873299.843701, -0.232727, +1.454224, -0.077637, +35.003662, -0.015259, +76.812744
1491873299.843974, 1491873299.846400, -0.232727, +1.454224, -0.077637, +35.003662, -0.015259, +76.812744
1491873299.846673, 1491873299.849093, -0.232727, +1.454224, -0.077637, +31.600952, -1.556396, +74.356079
1491873299.849365, 1491873299.851801, -0.169373, +1.430420, -0.107117, +31.600952, -1.556396, +74.356079
1491873299.852182, 1491873299.854608, -0.169373, +1.430420, -0.107117, +28.640747, -2.746582, +71.548462
1491873299.854882, 1491873299.857303, -0.169373, +1.430420, -0.107117, +28.640747, -2.746582, +67.642212
1491873299.857575, 1491873299.859998, -0.169373, +1.430420, -0.107117, +24.826050, -4.989624, +67.474365
1491873299.860333, 1491873299.862630, -0.097046, +1.316711, -0.095215, +24.826050, -4.989624, +63.568115
1491873299.862894, 1491873299.865190, -0.097046, +1.316711, -0.095215, +22.552490, -8.193970, +63.705444
1491873299.865452, 1491873299.867754, -0.097046, +1.316711, -0.095215, +22.552490, -8.193970, +59.799194
1491873299.868019, 1491873299.870342, -0.097046, +1.316711, -0.001465, +20.767212, -11.199951, +59.783936
1491873299.870617, 1491873299.873026, -0.079285, +1.198975, -0.045776, +20.767212, -11.199951, +55.877686
1491873299.873299, 1491873299.875710, -0.079285, +1.198975, -0.045776, +19.393921, -13.488770, +55.618286
1491873299.875981, 1491873299.878388, -0.079285, +1.198975, -0.045776, +19.393921, -13.488770, +51.712036
1491873299.878660, 1491873299.881079, -0.079285, +1.078857, -0.023621, +18.325806, -15.243530, +52.566528
1491873299.881351, 1491873299.883758, -0.133850, +1.078857, -0.023621, +18.325806, -15.243530, +50.613403
1491873299.884030, 1491873299.886435, -0.133850, +1.078857, -0.023621, +18.280029, -16.387939, +50.613403
1491873299.886707, 1491873299.889113, -0.133850, +1.078857, -0.023621, +18.280029, -16.387939, +47.851562
1491873299.889384, 1491873299.891805, -0.205994, +0.942810, -0.037903, +18.890381, -19.027710, +47.851562
1491873299.892079, 1491873299.894485, -0.205994, +0.942810, -0.037903, +18.890381, -19.027710, +45.394897
1491873299.894757, 1491873299.897165, -0.205994, +0.942810, -0.037903, +19.027710, -21.377563, +45.394897
1491873299.897440, 1491873299.899848, -0.205994, +0.942810, -0.037903, +19.027710, -25.283813, +43.533325
1491873299.900129, 1491873299.902541, -0.242249, +0.815186, +0.009888, +19.470215, -23.818970, +43.533325
1491873299.902816, 1491873299.905228, -0.242249, +0.815186, +0.009888, +19.470215, -23.818970, +42.129517
1491873299.905501, 1491873299.907910, -0.242249, +0.815186, +0.009888, +20.431519, -25.970459, +42.129517
1491873299.908182, 1491873299.910582, -0.242249, +0.815186, +0.009888, +20.431519, -25.619507, +40.206909
1491873299.910849, 1491873299.913153, -0.211121, +0.734802, +0.037537, +21.209717, -25.619507, +40.206909
1491873299.913421, 1491873299.915721, -0.211121, +0.734802, +0.037537, +21.209717, -21.713257, +38.452148
1491873299.915989, 1491873299.918289, -0.211121, +0.734802, +0.037537, +22.079468, -22.720337, +38.452148
1491873299.918556, 1491873299.920983, -0.211121, +0.734802, +0.084412, +22.079468, -18.814087, +36.392212
1491873299.921251, 1491873299.923548, -0.150513, +0.775452, +0.049988, +22.064209, -19.226074, +36.392212
1491873299.923816, 1491873299.926109, -0.150513, +0.775452, +0.049988, +22.064209, -15.319824, +33.935547
1491873299.926374, 1491873299.928671, -0.150513, +0.775452, +0.049988, +21.224976, -14.053345, +33.935547
1491873299.928937, 1491873299.931417, -0.150513, +0.775452, +0.100891, +21.224976, -6.240845, +32.821655
1491873299.931689, 1491873299.934079, -0.123779, +0.834961, +0.100891, +20.004272, -7.110596, +32.821655
1491873299.934350, 1491873299.936737, -0.123779, +0.834961, +0.100891, +20.004272, +0.701904, +31.951904
1491873299.937008, 1491873299.939423, -0.123779, +0.834961, +0.100891, +17.913818, +1.327515, +31.951904
1491873299.939695, 1491873299.942127, -0.123779, +0.839355, +0.075623, +17.913818, +9.948730, +30.227661
1491873299.942400, 1491873299.944822, -0.134216, +0.839355, +0.075623, +16.464233, +9.948730, +30.227661
1491873299.945094, 1491873299.947516, -0.134216, +0.839355, +0.075623, +16.464233, +16.876221, +28.213501
1491873299.947790, 1491873299.950218, -0.134216, +0.839355, +0.075623, +15.701294, +16.876221, +28.213501
1491873299.950493, 1491873299.952915, -0.180176, +0.809692, +0.005676, +11.795044, +22.796631, +27.450562
1491873299.953309, 1491873299.955736, -0.180176, +0.809692, +0.005676, +14.007568, +22.796631, +27.450562
1491873299.956011, 1491873299.958442, -0.180176, +0.809692, +0.005676, +12.359619, +27.435303, +26.504517
1491873299.958716, 1491873299.961151, -0.180176, +0.809692, +0.005676, +12.359619, +27.435303, +26.504517
1491873299.961423, 1491873299.963842, -0.356140, +0.808228, -0.121582, +10.604858, +28.518677, +25.634766
1491873299.964117, 1491873299.966543, -0.356140, +0.808228, -0.121582, +10.604858, +28.518677, +25.634766
1491873299.966819, 1491873299.969241, -0.356140, +0.808228, -0.121582, +10.131836, +26.336670, +25.634766
1491873299.969515, 1491873299.971852, -0.356140, +0.808228, -0.199768, +10.131836, +26.336670, +25.634766
1491873299.972118, 1491873299.974416, -0.359253, +0.851257, -0.199768, +10.803223, +19.714355, +26.031494
1491873299.974681, 1491873299.976980, -0.359253, +0.851257, -0.199768, +10.803223, +19.714355, +26.031494
1491873299.977245, 1491873299.979544, -0.359253, +0.851257, -0.199768, +11.779785, +12.283325, +26.641846
1491873299.979807, 1491873299.982211, -0.359253, +0.851257, -0.257446, +11.779785, +12.283325, +26.641846
1491873299.982483, 1491873299.984890, -0.168091, +0.960571, -0.257446, +12.252808, +8.773804, +27.175903
1491873299.985160, 1491873299.987566, -0.168091, +0.960571, -0.257446, +12.252808, +8.773804, +27.175903
1491873299.987835, 1491873299.990285, -0.168091, +0.960571, -0.257446, +11.718750, +8.728027, +27.084351
1491873299.990557, 1491873299.992965, -0.121216, +0.994812, -0.350098, +11.718750, +8.728027, +27.084351
1491873299.993235, 1491873299.995642, -0.109680, +0.994812, -0.350098, +11.627197, +9.552002, +27.221680
1491873299.995912, 1491873299.998319, -0.109680, +0.994812, -0.350098, +11.627197, +9.552002, +27.221680
1491873299.998591, 1491873300.001012, -0.109680, +0.994812, -0.350098, +10.986328, +8.529663, +26.855469
1491873300.001284, 1491873300.003697, -0.189880, +1.044250, -0.291870, +10.986328, +8.529663, +26.855469
1491873300.003966, 1491873300.006374, -0.189880, +1.044250, -0.291870, +9.246826, +7.354736, +25.924683
1491873300.006640, 1491873300.009045, -0.189880, +1.044250, -0.291870, +9.246826, +7.354736, +25.924683
1491873300.009312, 1491873300.011718, -0.189880, +1.044250, -0.291870, +7.415771, +6.698608, +25.085449
1491873300.011981, 1491873300.014365, -0.225037, +1.095337, -0.177795, +7.415771, +6.698608, +25.085449
1491873300.014629, 1491873300.017017, -0.225037, +1.095337, -0.177795, +6.347656, +4.394531, +25.329590
1491873300.017282, 1491873300.019760, -0.225037, +1.095337, -0.177795, +6.347656, +4.394531, +25.329590
1491873300.020029, 1491873300.022401, -0.225037, +1.095337, -0.084045, +4.974365, +1.831055, +25.451660
1491873300.022664, 1491873300.024959, -0.207275, +1.127563, -0.065002, +4.974365, +1.831055, +25.451660
1491873300.025220, 1491873300.027519, -0.207275, +1.127563, -0.065002, +3.890991, +1.541138, +25.466919
1491873300.027781, 1491873300.030119, -0.207275, +1.127563, -0.065002, +3.890991, +1.541138, +25.466919
1491873300.030379, 1491873300.032678, -0.207275, +1.127563, +0.082397, +2.655029, +1.693726, +24.978638
1491873300.032938, 1491873300.035230, -0.077087, +1.165833, +0.082397, +2.655029, +1.693726, +24.978638
1491873300.035491, 1491873300.037789, -0.077087, +1.165833, +0.082397, +1.205444, +4.455566, +22.857666
1491873300.038050, 1491873300.040371, -0.077087, +1.165833, +0.082397, +1.205444, +4.455566, +22.857666
1491873300.040639, 1491873300.043066, -0.077087, +1.165833, +0.071045, +0.411987, +10.147095, +20.324707
1491873300.043339, 1491873300.045760, -0.021240, +1.208496, +0.071045, +0.411987, +10.147095, +20.324707
1491873300.046032, 1491873300.048453, -0.021240, +1.208496, +0.071045, -0.946045, +14.694214, +18.218994
1491873300.048726, 1491873300.051158, -0.021240, +1.208496, +0.071045, -0.946045, +14.694214, +18.218994
1491873300.051429, 1491873300.053854, +0.025635, +1.175537, -0.059326, -1.083374, +18.402100, +15.716553
1491873300.054125, 1491873300.056544, +0.001648, +1.175537, -0.059326, -1.083374, +18.402100, +15.716553
1491873300.056922, 1491873300.059348, +0.001648, +1.175537, -0.059326, -0.198364, +23.559570, +12.847900
1491873300.059620, 1491873300.062106, +0.001648, +1.175537, -0.059326, -0.198364, +23.559570, +12.847900
1491873300.062379, 1491873300.064808, -0.091736, +1.130310, -0.112061, +0.167847, +29.541016, +11.627197
1491873300.065080, 1491873300.067504, -0.091736, +1.130310, -0.112061, +0.167847, +29.541016, +11.627197
1491873300.067778, 1491873300.070207, -0.091736, +1.130310, -0.112061, -0.213623, +31.616211, +10.314941
1491873300.070479, 1491873300.072902, -0.091736, +1.130310, -0.112061, -0.213623, +31.616211, +10.314941
1491873300.073174, 1491873300.075596, -0.169739, +1.132507, +0.003845, -0.900269, +30.014038, +9.689331
1491873300.075865, 1491873300.078289, -0.169739, +1.132507, +0.003845, -0.900269, +30.014038, +9.689331
1491873300.078560, 1491873300.080949, -0.169739, +1.132507, +0.003845, -1.022339, +26.641846, +9.689331
1491873300.081212, 1491873300.083511, -0.169739, +1.132507, +0.022522, -1.022339, +26.641846, +9.689331
1491873300.083772, 1491873300.086069, -0.220459, +1.062012, +0.022522, +0.442505, +24.261475, +10.421753
1491873300.086333, 1491873300.088626, -0.220459, +1.062012, +0.022522, +0.442505, +24.261475, +10.421753
1491873300.088890, 1491873300.091294, -0.220459, +1.062012, +0.022522, +2.731323, +24.719238, +11.322021
1491873300.091564, 1491873300.093973, -0.220459, +1.062012, -0.049805, +2.731323, +24.719238, +15.228271
1491873300.094244, 1491873300.096649, -0.283630, +1.032349, -0.049805, +6.240845, +29.251099, +13.504028
1491873300.096919, 1491873300.099324, -0.283630, +1.032349, -0.049805, +6.240845, +29.251099, +17.410278
1491873300.099594, 1491873300.102005, -0.283630, +1.032349, -0.049805, +10.742188, +40.924072, +16.174316
1491873300.102277, 1491873300.104682, -0.246094, +1.034180, -0.099976, +10.742188, +40.924072, +18.859863
1491873300.104955, 1491873300.107359, -0.246094, +1.034180, -0.099976, +14.190674, +54.382324, +18.859863
1491873300.107631, 1491873300.110082, -0.246094, +1.034180, -0.099976, +14.190674, +54.382324, +20.553589
1491873300.110352, 1491873300.112740, -0.246094, +1.034180, -0.099976, +13.259888, +56.640625, +20.553589
1491873300.113012, 1491873300.115398, -0.214050, +1.067139, +0.072693, +13.259888, +56.640625, +20.751953
1491873300.115669, 1491873300.118049, -0.214050, +1.067139, +0.072693, +10.711670, +47.119141, +20.751953
1491873300.118323, 1491873300.120786, -0.214050, +1.067139, +0.072693, +10.711670, +31.494141, +20.523071
1491873300.121055, 1491873300.123357, -0.214050, +1.067139, +0.072693, +10.620117, +34.408569, +20.523071
1491873300.123624, 1491873300.125920, -0.251953, +1.064392, +0.066467, +10.620117, +34.408569, +20.629883
1491873300.126185, 1491873300.128485, -0.251953, +1.064392, +0.066467, +11.520386, +23.986816, +20.629883
1491873300.128749, 1491873300.131123, -0.251953, +1.064392, +0.066467, +11.520386, +23.986816, +20.584106
1491873300.131394, 1491873300.133804, -0.251953, +1.064392, +0.066467, +11.108398, +17.578125, +20.584106
1491873300.134076, 1491873300.136482, -0.194641, +1.072815, -0.017761, +11.108398, +17.578125, +19.805908
1491873300.136755, 1491873300.139168, -0.194641, +1.072815, -0.017761, +9.399414, +12.496948, +19.805908
1491873300.139439, 1491873300.141896, -0.194641, +1.072815, -0.017761, +9.399414, +4.684448, +18.280029
1491873300.142164, 1491873300.144573, -0.194641, +1.072815, -0.064270, +8.148193, +6.958008, +18.280029
1491873300.144839, 1491873300.147243, -0.151062, +1.079773, -0.064270, +8.148193, +3.158569, +16.662598
1491873300.147510, 1491873300.149917, -0.151062, +1.079773, -0.064270, +7.476807, +3.158569, +16.662598
1491873300.150195, 1491873300.152603, -0.151062, +1.079773, -0.064270, +7.476807, +0.930786, +16.052246
1491873300.152871, 1491873300.155277, -0.151062, +1.112732, -0.103088, +6.454468, +0.930786, +16.052246
1491873300.155546, 1491873300.157958, -0.145752, +1.112732, -0.103088, +6.454468, +2.151489, +14.709473
1491873300.158225, 1491873300.162400, -0.145752, +1.112732, -0.103088, +4.592896, +2.151489, +14.709473
1491873300.162821, 1491873300.165135, -0.145752, +1.122070, -0.075806, +1.358032, +9.033203, +12.176514
1491873300.165403, 1491873300.167699, -0.123047, +1.122070, -0.075806, +1.358032, +9.033203, +8.270264
1491873300.167958, 1491873300.170332, -0.123047, +1.122070, -0.075806, -3.707886, +8.544922, +8.666992
1491873300.170590, 1491873300.172884, -0.123047, +1.122070, -0.075806, -3.707886, +8.544922, +4.760742
1491873300.173142, 1491873300.175438, -0.076172, +1.068237, -0.085510, -6.805420, +2.685547, +4.440308
1491873300.175695, 1491873300.177989, -0.069397, +1.068237, -0.085510, -6.805420, +2.685547, +4.440308
1491873300.178246, 1491873300.180546, -0.069397, +1.068237, -0.085510, -7.858276, +2.029419, +0.198364
1491873300.180804, 1491873300.183102, -0.069397, +1.068237, -0.085510, -7.858276, +2.029419, +0.198364
1491873300.183360, 1491873300.185658, +0.024353, +1.040588, -0.164978, -9.613037, +1.464844, -4.241943
1491873300.185915, 1491873300.188213, +0.006592, +1.040588, -0.164978, -9.613037, +1.464844, -4.241943
1491873300.188471, 1491873300.190773, +0.006592, +1.040588, -0.164978, -11.459351, +2.059937, -8.193970
