timestamp_before, timestamp_after, accel_x, accel_y, accel_z, gyro_x, gyro_y, gyro_z
1491873311.192297, 1491873311.195288, -0.066833, +1.235046, -0.055115, +1.419067, +0.137329, +0.518799
1491873311.195634, 1491873311.197924, -0.028564, +1.000854, -0.055115, +1.419067, +0.137329, -0.045776
1491873311.198181, 1491873311.200820, -0.028564, +1.000854, -0.055115, +1.724243, -0.823975, -0.045776
1491873311.201080, 1491873311.203374, -0.028564, +1.000854, -0.055115, +1.724243, +3.082275, +0.076294
1491873311.203630, 1491873311.205922, -0.031311, +1.030518, -0.064819, +1.495361, +0.259399, +0.076294
1491873311.206180, 1491873311.208469, -0.031311, +1.030518, -0.064819, +1.495361, +0.259399, -0.259399
1491873311.208727, 1491873311.211270, -0.031311, +1.030518, -0.064819, +1.129150, +0.656128, -0.259399
1491873311.211528, 1491873311.213828, -0.031311, +1.030518, -0.064819, +1.129150, +0.656128, -0.122070
1491873311.214086, 1491873311.216384, -0.045410, +1.030334, -0.069214, +0.717163, +1.174927, -0.122070
1491873311.216643, 1491873311.218939, -0.045410, +1.030334, -0.069214, +0.717163, +1.174927, -0.274658
1491873311.219196, 1491873311.221654, -0.045410, +1.030334, -0.069214, +0.717163, +1.037598, -0.274658
1491873311.221913, 1491873311.224207, -0.045410, +1.030334, -0.069214, +0.717163, +1.037598, -0.564575
1491873311.224466, 1491873311.226757, -0.043396, +1.028870, -0.056580, +0.198364, +1.129150, -0.564575
1491873311.227015, 1491873311.229306, -0.043396, +1.028870, -0.056580, +0.198364, +1.129150, -0.564575
1491873311.229565, 1491873311.231946, -0.043396, +1.028870, -0.056580, +0.625610, +1.190186, -0.656128
1491873311.232211, 1491873311.234596, -0.043396, +1.028870, -0.056580, +0.625610, +1.190186, -0.656128
1491873311.234859, 1491873311.237246, -0.036804, +1.023376, -0.060425, +0.411987, +1.846313, -0.640869
1491873311.237508, 1491873311.239893, -0.036804, +1.023376, -0.060425, +0.411987, +1.846313, -0.640869
1491873311.240161, 1491873311.242573, -0.036804, +1.023376, -0.060425, +0.335693, +2.090454, -1.007080
1491873311.242839, 1491873311.245245, -0.036804, +1.023376, -0.060425, +0.335693, +2.090454, -1.327515
1491873311.245508, 1491873311.247916, -0.050171, +1.022827, -0.059509, +0.320435, +2.471924, -1.327515
1491873311.248180, 1491873311.250597, -0.050171, +1.022827, -0.059509, +0.320435, +2.471924, -1.281738
1491873311.250863, 1491873311.253271, -0.050171, +1.022827, -0.059509, +0.549316, +2.532959, -1.281738
1491873311.253534, 1491873311.255944, -0.050171, +1.022827, -0.053650, +0.549316, +2.532959, -1.312256
1491873311.256207, 1491873311.258617, -0.059875, +1.034363, -0.053650, +0.152588, +2.441406, -1.312256
1491873311.258882, 1491873311.261291, -0.059875, +1.034363, -0.053650, +0.152588, +2.441406, -0.839233
1491873311.261554, 1491873311.263938, -0.059875, +1.034363, -0.053650, -0.457764, +1.510620, -0.839233
1491873311.264201, 1491873311.266763, -0.059875, +1.032349, -0.064270, -0.457764, +1.037598, -0.274658
1491873311.267031, 1491873311.269457, -0.051636, +1.032349, -0.064270, -0.579834, +1.037598, -0.274658
1491873311.269722, 1491873311.272051, -0.051636, +1.032349, -0.064270, -0.579834, +0.930786, -0.320435
1491873311.272309, 1491873311.274601, -0.051636, +1.032349, -0.064270, -0.335693, +0.930786, -0.320435
1491873311.274859, 1491873311.277160, -0.035156, +1.027405, -0.058044, -0.335693, +0.930786, -0.503540
1491873311.277419, 1491873311.279714, -0.035156, +1.027405, -0.058044, -0.045776, +1.052856, -0.503540
1491873311.279972, 1491873311.282510, -0.035156, +1.027405, -0.058044, -0.045776, +1.495361, -0.640869
1491873311.282776, 1491873311.285197, -0.035156, +1.027405, -0.058044, +0.030518, +1.495361, -0.640869
1491873311.285462, 1491873311.287882, -0.043762, +1.025391, -0.045227, +0.030518, +1.785278, -0.167847
1491873311.288148, 1491873311.290589, -0.043762, +1.025391, -0.045227, -0.030518, +1.785278, -0.167847
1491873311.290852, 1491873311.293270, -0.043762, +1.025391, -0.045227, +3.875732, +2.014160, -0.534058
1491873311.293534, 1491873311.295949, -0.043762, +1.025391, -0.045227, +0.305176, +2.014160, -0.534058
1491873311.296354, 1491873311.298779, -0.054749, +1.020813, -0.045776, +0.976562, +2.731323, -0.625610
1491873311.299044, 1491873311.301441, -0.054749, +1.020813, -0.045776, +0.976562, +2.731323, -0.625610
1491873311.301701, 1491873311.303998, -0.054749, +1.020813, -0.045776, +1.266479, +3.463745, -0.335693
1491873311.304256, 1491873311.306556, -0.054749, +1.020813, -0.050903, +1.266479, +3.463745, -0.335693
1491873311.306814, 1491873311.309115, -0.063354, +1.021729, -0.050903, +1.174927, +3.677368, -0.213623
1491873311.309373, 1491873311.311785, -0.063354, +1.021729, -0.050903, +1.174927, +3.677368, -0.213623
1491873311.312042, 1491873311.314340, -0.063354, +1.021729, -0.050903, +1.190186, +4.104614, +0.503540
1491873311.314599, 1491873311.316895, -0.063354, +1.068604, -0.033508, +1.190186, +4.104614, +0.503540
1491873311.317152, 1491873311.319491, -0.064087, +1.031250, -0.033508, +1.190186, +4.333496, +0.747681
1491873311.319749, 1491873311.322459, -0.064087, +1.031250, -0.033508, +1.083374, +4.333496, +0.747681
1491873311.322724, 1491873311.325143, -0.064087, +1.031250, -0.033508, +1.571655, +4.409790, +0.701904
1491873311.325409, 1491873311.327832, -0.050171, +1.032532, -0.051270, +1.571655, +4.409790, +0.701904
1491873311.328097, 1491873311.330529, -0.050171, +1.032532, -0.051270, +1.968384, +4.638672, +1.098633
1491873311.330791, 1491873311.333220, -0.050171, +1.032532, -0.051270, +1.968384, +4.638672, +1.098633
1491873311.333482, 1491873311.335905, -0.050171, +1.032532, -0.051270, +1.815796, +4.913330, +1.129150
1491873311.336169, 1491873311.338591, -0.050537, +1.041687, -0.067383, +1.815796, +4.913330, +1.129150
1491873311.338853, 1491873311.341223, -0.050537, +1.041687, -0.067383, +1.541138, +5.493164, +0.854492
1491873311.341482, 1491873311.343779, -0.050537, +1.041687, -0.067383, +1.541138, +5.493164, +0.854492
1491873311.344038, 1491873311.346333, -0.050537, +1.041687, -0.067383, +1.037598, +5.249023, +0.991821
1491873311.346591, 1491873311.348894, -0.053101, +1.038208, -0.074158, +1.037598, +5.249023, +0.991821
1491873311.349152, 1491873311.351560, -0.053101, +1.038208, -0.074158, +0.991821, +4.348755, +1.129150
1491873311.351823, 1491873311.354231, -0.053101, +1.038208, -0.074158, +0.991821, +4.348755, +1.129150
1491873311.354493, 1491873311.356901, -0.053101, +1.038208, -0.074158, +0.717163, +3.738403, +1.373291
1491873311.357165, 1491873311.359572, -0.058960, +1.030151, -0.080933, +0.717163, +3.738403, +1.373291
1491873311.359836, 1491873311.362419, -0.058960, +1.030151, -0.080933, +0.839233, +3.692627, +1.342773
1491873311.362680, 1491873311.364980, -0.058960, +1.030151, -0.080933, +0.839233, +3.692627, +1.342773
1491873311.365239, 1491873311.367573, -0.058960, +1.030151, -0.085693, -0.122070, +2.960205, +1.495361
1491873311.367830, 1491873311.370206, -0.059875, +1.014954, -0.085693, -0.122070, +2.960205, +1.495361
1491873311.370483, 1491873311.372794, -0.059875, +1.014954, -0.085693, -0.076294, +2.243042, +1.327515
1491873311.373051, 1491873311.375344, -0.059875, +1.014954, -0.085693, -0.076294, +2.243042, +1.327515
1491873311.375686, 1491873311.377989, -0.059875, +1.019531, -0.068115, -0.411987, +1.388550, +1.617432
1491873311.378246, 1491873311.381322, -0.047058, +1.019531, -0.068115, -0.411987, +1.388550, +1.617432
1491873311.381583, 1491873311.383883, -0.047058, +1.019531, -0.068115, -0.244141, +1.403809, +1.907349
1491873311.384142, 1491873311.386437, -0.047058, +1.019531, -0.068115, -0.244141, +1.403809, +1.907349
1491873311.386693, 1491873311.388990, -0.052917, +1.023743, -0.080933, -0.228882, +1.708984, +2.273560
1491873311.389247, 1491873311.391634, -0.052917, +1.023743, -0.080933, -0.228882, +1.708984, +2.273560
1491873311.391899, 1491873311.394321, -0.052917, +1.023743, -0.080933, -1.037598, +1.373291, +1.602173
1491873311.394585, 1491873311.397006, -0.052917, +1.023743, -0.080933, -1.037598, +1.373291, +1.602173
1491873311.397269, 1491873311.399691, -0.059509, +1.030518, -0.085144, -1.815796, +1.098633, +1.724243
1491873311.399956, 1491873311.402388, -0.059509, +1.030518, -0.085144, -1.815796, +1.098633, +1.724243
1491873311.402771, 1491873311.405196, -0.059509, +1.030518, -0.085144, -1.953125, +0.595093, +1.998901
1491873311.405460, 1491873311.407878, -0.059509, +1.030518, -0.085144, -1.953125, +0.595093, +1.998901
1491873311.408143, 1491873311.410551, -0.048523, +1.037842, -0.070862, -2.105713, +0.503540, +2.090454
1491873311.410808, 1491873311.413105, -0.048523, +1.037842, -0.070862, -2.105713, +0.503540, +2.090454
1491873311.413362, 1491873311.415655, -0.048523, +1.037842, -0.070862, -2.380371, +0.823975, +1.998901
1491873311.415911, 1491873311.418206, -0.048523, +1.037842, -0.077820, -2.380371, +0.823975, +1.998901
1491873311.418463, 1491873311.420770, -0.032593, +1.045166, -0.077820, -2.807617, +0.778198, +1.556396
1491873311.421026, 1491873311.423324, -0.032593, +1.045166, -0.077820, -2.807617, +0.778198, +1.556396
1491873311.423583, 1491873311.425883, -0.032593, +1.045166, -0.077820, -2.120972, +0.686646, +1.403809
1491873311.426140, 1491873311.428439, -0.032593, +1.045166, -0.077087, -2.120972, +0.686646, +1.403809
1491873311.428697, 1491873311.431172, -0.046509, +1.043701, -0.077087, -2.548218, +0.732422, +1.663208
1491873311.431429, 1491873311.433729, -0.046509, +1.043701, -0.077087, -2.548218, +0.732422, +1.663208
1491873311.433986, 1491873311.436284, -0.046509, +1.043701, -0.077087, -2.853394, +0.747681, +1.464844
1491873311.436541, 1491873311.438838, -0.046509, +0.996826, -0.067200, -2.853394, +0.747681, +1.464844
1491873311.439096, 1491873311.441615, -0.062805, +1.029602, -0.067200, -2.853394, +0.503540, +1.708984
1491873311.441880, 1491873311.444300, -0.062805, +1.029602, -0.067200, -2.853394, +0.503540, +1.708984
1491873311.444564, 1491873311.446980, -0.062805, +1.029602, -0.067200, -2.609253, +0.015259, +2.151489
1491873311.447245, 1491873311.449664, -0.070862, +1.019348, -0.066101, -2.609253, +0.015259, +2.151489
1491873311.449928, 1491873311.452367, -0.070862, +1.019348, -0.066101, -2.120972, -0.381470, +2.532959
1491873311.452632, 1491873311.455057, -0.070862, +1.019348, -0.066101, -2.120972, -0.381470, +2.532959
1491873311.455322, 1491873311.457749, -0.070862, +1.019348, -0.066101, -1.617432, +0.198364, +3.021240
1491873311.458013, 1491873311.460475, -0.059326, +1.014404, -0.071411, -1.617432, +0.198364, +3.021240
1491873311.460733, 1491873311.463025, -0.059326, +1.014404, -0.071411, -2.090454, +0.671387, +3.463745
1491873311.463282, 1491873311.465581, -0.059326, +1.014404, -0.071411, -2.090454, +0.671387, +3.463745
1491873311.465838, 1491873311.468131, -0.059326, +1.014404, -0.071411, -1.815796, +0.747681, +3.799438
1491873311.468389, 1491873311.470692, -0.045410, +1.023193, -0.066101, -1.815796, +0.747681, +3.799438
1491873311.470951, 1491873311.473245, -0.045410, +1.023193, -0.066101, -1.632690, +1.129150, +4.364014
1491873311.473502, 1491873311.475797, -0.045410, +1.023193, -0.066101, -1.632690, +1.129150, +4.364014
1491873311.476054, 1491873311.478349, -0.045410, +1.023193, -0.066101, -1.647949, +1.678467, +4.608154
1491873311.478604, 1491873311.480967, -0.063538, +1.032349, -0.076355, -1.647949, +1.678467, +4.608154
1491873311.481231, 1491873311.483658, -0.063538, +1.032349, -0.076355, -0.534058, +3.479004, +4.760742
1491873311.483923, 1491873311.486345, -0.063538, +1.032349, -0.076355, -0.534058, +3.479004, +4.760742
1491873311.486608, 1491873311.489028, -0.063538, +1.032349, -0.076355, +1.296997, +10.940552, +4.974365
1491873311.489297, 1491873311.491734, -0.088440, +1.027588, -0.128540, +1.296997, +10.940552, +4.974365
1491873311.492004, 1491873311.494430, -0.088440, +1.027588, -0.128540, +4.470825, +22.552490, +5.447388
1491873311.494699, 1491873311.497215, -0.088440, +1.027588, -0.128540, +4.470825, +22.552490, +5.447388
1491873311.497484, 1491873311.499909, -0.088440, +1.032898, -0.025818, +5.325317, +26.840210, +6.881714
1491873311.500187, 1491873311.502613, -0.025269, +1.032898, -0.025818, +5.325317, +26.840210, +6.881714
1491873311.502882, 1491873311.505305, -0.025269, +1.032898, -0.025818, +4.806519, +23.605347, +7.415771
1491873311.505574, 1491873311.508001, -0.025269, +1.032898, -0.025818, +4.806519, +23.605347, +7.415771
1491873311.508384, 1491873311.510813, -0.046692, +1.047363, -0.009888, +4.989624, +22.293091, +7.263184
1491873311.511081, 1491873311.513505, -0.046692, +1.047363, -0.009888, +4.989624, +22.293091, +7.888794
1491873311.513772, 1491873311.516202, -0.046692, +1.047363, -0.009888, +5.828857, +26.687622, +7.888794
1491873311.516470, 1491873311.518890, -0.046692, +1.047363, -0.009888, +5.828857, +26.687622, +9.231567
1491873311.519160, 1491873311.521523, -0.028931, +1.011292, -0.091919, +7.202148, +35.186768, +9.231567
1491873311.521787, 1491873311.524086, -0.028931, +1.011292, -0.091919, +7.202148, +35.186768, +10.665894
1491873311.524351, 1491873311.526649, -0.028931, +1.011292, -0.091919, +7.583618, +46.966553, +10.665894
1491873311.526911, 1491873311.529206, -0.028931, +1.011292, -0.091919, +7.583618, +46.966553, +11.276245
1491873311.529470, 1491873311.531816, +0.015930, +1.037659, -0.005310, +5.737305, +47.927856, +11.276245
1491873311.532080, 1491873311.534383, +0.015930, +1.037659, -0.005310, +5.737305, +47.927856, +11.276245
1491873311.534646, 1491873311.536950, +0.015930, +1.037659, -0.005310, +2.990723, +40.527344, +11.199951
1491873311.537213, 1491873311.539510, +0.015930, +1.037659, -0.005310, +2.990723, +40.527344, +11.199951
1491873311.539775, 1491873311.542160, -0.087891, +1.050110, +0.005310, +1.800537, +37.673950, +10.620117
1491873311.542425, 1491873311.544726, -0.087891, +1.050110, +0.005310, +1.800537, +37.673950, +10.620117
1491873311.544992, 1491873311.547286, -0.087891, +1.050110, +0.005310, +0.473022, +35.354614, +10.910034
1491873311.547552, 1491873311.549856, -0.087891, +1.050110, +0.005310, +0.473022, +35.354614, +10.910034
1491873311.550217, 1491873311.552638, -0.099426, +1.074280, -0.061523, -1.647949, +31.036377, +11.917114
1491873311.552910, 1491873311.555334, -0.099426, +1.074280, -0.061523, -1.647949, +31.036377, +11.917114
1491873311.555605, 1491873311.558032, -0.099426, +1.074280, -0.061523, -3.295898, +26.046753, +11.779785
1491873311.558302, 1491873311.560736, -0.099426, +1.121155, -0.073975, -3.295898, +26.046753, +7.873535
1491873311.561006, 1491873311.563421, -0.117554, +1.092224, -0.073975, -5.493164, +23.193359, +10.284424
1491873311.563694, 1491873311.566121, -0.117554, +1.092224, -0.073975, -5.493164, +23.193359, +8.438110
1491873311.566390, 1491873311.568813, -0.117554, +1.092224, -0.073975, -8.163452, +19.485474, +8.438110
1491873311.569084, 1491873311.571455, -0.083130, +1.067139, -0.073608, -8.163452, +19.485474, +6.347656
1491873311.571716, 1491873311.574011, -0.083130, +1.067139, -0.073608, -10.437012, +14.617920, +6.347656
1491873311.574275, 1491873311.576569, -0.083130, +1.067139, -0.073608, -10.437012, +14.617920, +3.936768
1491873311.576832, 1491873311.579135, -0.083130, +1.067139, -0.073608, -11.138916, +9.002686, +3.936768
1491873311.579396, 1491873311.581694, -0.042664, +1.040222, -0.105835, -11.138916, +9.002686, +0.030518
1491873311.581958, 1491873311.584247, -0.042664, +1.040222, -0.105835, -11.581421, +5.157471, +2.182007
1491873311.584509, 1491873311.586812, -0.042664, +1.040222, -0.105835, -11.581421, +5.157471, +2.182007
1491873311.587073, 1491873311.589363, -0.042664, +1.040222, -0.105835, -11.688232, +1.876831, +0.610352
1491873311.589625, 1491873311.592046, -0.081848, +1.054871, -0.088623, -11.688232, +1.876831, +0.610352
1491873311.592315, 1491873311.594738, -0.081848, +1.054871, -0.088623, -12.573242, -1.586914, -1.159668
1491873311.595006, 1491873311.597428, -0.081848, +1.054871, -0.088623, -12.573242, -1.586914, -5.065918
1491873311.597695, 1491873311.600133, -0.081848, +1.054871, -0.088623, -14.480591, -5.615234, -4.226685
1491873311.600401, 1491873311.602818, -0.086609, +1.075378, -0.049805, -14.480591, -5.615234, -4.226685
1491873311.603085, 1491873311.605509, -0.086609, +1.075378, -0.049805, -15.930176, -9.338379, -7.003784
1491873311.605777, 1491873311.608206, -0.086609, +1.075378, -0.049805, -15.930176, -9.338379, -9.902954
1491873311.608474, 1491873311.610913, -0.086609, +1.075378, -0.049805, -17.227173, -13.748169, -9.902954
1491873311.611293, 1491873311.613718, +0.016479, +1.078125, -0.077820, -17.227173, -17.654419, -12.985229
1491873311.613993, 1491873311.616415, +0.016479, +1.078125, -0.077820, -19.134521, -17.211914, -12.985229
1491873311.616690, 1491873311.619113, +0.016479, +1.078125, -0.077820, -19.134521, -17.211914, -16.052246
1491873311.619387, 1491873311.621819, +0.016479, +1.076660, -0.121765, -20.401001, -18.310547, -16.052246
1491873311.622093, 1491873311.624512, +0.114258, +1.076660, -0.121765, -20.401001, -18.142700, -19.332886
1491873311.624787, 1491873311.627216, +0.114258, +1.076660, -0.121765, -21.911621, -18.142700, -19.332886
1491873311.627491, 1491873311.629918, +0.114258, +1.076660, -0.121765, -21.911621, -17.410278, -23.132324
1491873311.630202, 1491873311.632496, +0.091003, +1.095703, -0.134399, -23.315430, -17.410278, -23.132324
1491873311.632762, 1491873311.635064, +0.091003, +1.095703, -0.134399, -27.221680, -17.547607, -26.535034
1491873311.635328, 1491873311.637627, +0.091003, +1.095703, -0.134399, -25.238037, -17.547607, -26.535034
1491873311.637893, 1491873311.640199, +0.091003, +1.095703, -0.134399, -25.238037, -19.561768, -29.693604
1491873311.640473, 1491873311.642904, -0.002197, +1.093323, -0.126526, -26.062012, -19.561768, -29.693604
1491873311.643178, 1491873311.645594, -0.002197, +1.093323, -0.126526, -26.062012, -21.865845, -32.196045
1491873311.645869, 1491873311.648288, -0.002197, +1.093323, -0.126526, -25.680542, -21.865845, -32.196045
1491873311.648561, 1491873311.651003, -0.002197, +1.093323, -0.126526, -25.680542, -23.025513, -33.752441
1491873311.651277, 1491873311.653695, -0.063904, +1.043518, -0.113342, -24.307251, -23.025513, -33.752441
1491873311.653968, 1491873311.656392, -0.063904, +1.043518, -0.113342, -23.315430, -24.032593, -36.163330
1491873311.656666, 1491873311.659085, -0.063904, +1.043518, -0.113342, -23.315430, -24.032593, -36.163330
1491873311.659361, 1491873311.661792, -0.063904, +1.043518, -0.066467, -22.247314, -26.412964, -37.811279
1491873311.662066, 1491873311.664495, -0.158752, +1.031250, -0.075439, -22.247314, -26.412964, -37.811279
1491873311.664767, 1491873311.667186, -0.158752, +1.031250, -0.075439, -20.706177, -29.312134, -38.619995
1491873311.667460, 1491873311.669881, -0.158752, +1.031250, -0.075439, -20.706177, -29.312134, -38.619995
1491873311.670163, 1491873311.672592, -0.158752, +0.981995, -0.007507, -19.592285, -32.333374, -39.550781
1491873311.672866, 1491873311.675290, -0.119934, +0.981995, -0.007507, -19.592285, -32.333374, -39.550781
1491873311.675565, 1491873311.677995, -0.119934, +0.981995, -0.007507, -17.745972, -34.805298, -39.764404
1491873311.678270, 1491873311.680673, -0.119934, +0.981995, -0.007507, -17.745972, -34.805298, -39.764404
1491873311.680941, 1491873311.683230, -0.044678, +0.898682, +0.049072, -16.143799, -36.300659, -40.100098
1491873311.683496, 1491873311.685800, -0.044678, +0.898682, +0.049072, -16.143799, -36.300659, -40.100098
1491873311.686066, 1491873311.688361, -0.044678, +0.898682, +0.049072, -14.068604, -37.170410, -40.023804
1491873311.688628, 1491873311.690990, -0.044678, +0.898682, +0.049072, -14.068604, -37.170410, -40.023804
1491873311.691267, 1491873311.693692, -0.043762, +0.874329, +0.099426, -12.329102, -39.016724, -40.634155
1491873311.693967, 1491873311.696388, -0.043762, +0.874329, +0.099426, -12.329102, -39.016724, -40.634155
1491873311.696662, 1491873311.699089, -0.043762, +0.874329, +0.099426, -10.757446, -40.359497, -41.229248
1491873311.699363, 1491873311.701805, -0.043762, +0.874329, +0.099426, -10.757446, -40.359497, -41.229248
1491873311.702079, 1491873311.704503, -0.019226, +0.875977, +0.128540, -9.765625, -41.336060, -41.427612
1491873311.704777, 1491873311.707207, -0.019226, +0.875977, +0.128540, -9.765625, -41.336060, -41.427612
1491873311.707481, 1491873311.709905, -0.019226, +0.875977, +0.128540, -8.666992, -41.580200, -41.809082
1491873311.710188, 1491873311.712615, -0.019226, +0.875977, +0.148499, -8.666992, -41.580200, -41.809082
1491873311.712886, 1491873311.715314, +0.016479, +0.912598, +0.148499, -8.346558, -42.007446, -41.809082
1491873311.715695, 1491873311.718119, +0.016479, +0.912598, +0.148499, -8.346558, -42.007446, -41.809082
1491873311.718390, 1491873311.720830, +0.016479, +0.912598, +0.148499, -9.277344, -42.373657, -42.037964
1491873311.721102, 1491873311.723524, -0.030396, +0.977051, +0.116455, -9.277344, -42.373657, -42.037964
1491873311.723798, 1491873311.726223, -0.024536, +0.977051, +0.116455, -10.482788, -43.670654, -42.251587
1491873311.726497, 1491873311.728925, -0.024536, +0.977051, +0.116455, -10.482788, -43.670654, -42.251587
1491873311.729200, 1491873311.731545, -0.024536, +0.977051, +0.116455, -11.077881, -44.982910, -42.922974
1491873311.731813, 1491873311.734106, -0.089172, +1.015320, +0.015015, -11.077881, -44.982910, -42.922974
1491873311.734373, 1491873311.736676, -0.089172, +1.015320, +0.015015, -11.062622, -46.676636, -43.136597
1491873311.736942, 1491873311.739237, -0.089172, +1.015320, +0.015015, -11.062622, -46.676636, -43.136597
1491873311.739503, 1491873311.741943, -0.089172, +1.015320, +0.015015, -10.604858, -49.865723, -44.403076
1491873311.742217, 1491873311.744637, -0.137878, +1.051025, -0.071411, -10.604858, -49.865723, -44.403076
1491873311.744912, 1491873311.747331, -0.137878, +1.051025, -0.071411, -11.093140, -53.665161, -45.684814
1491873311.747604, 1491873311.750030, -0.137878, +1.051025, -0.071411, -11.093140, -53.665161, -49.591064
1491873311.750351, 1491873311.752775, -0.137878, +1.051025, -0.071411, -13.137817, -57.571411, -47.042847
1491873311.753049, 1491873311.755463, -0.199768, +1.022644, -0.078735, -13.137817, -57.571411, -47.348022
1491873311.755736, 1491873311.758158, -0.199768, +1.022644, -0.078735, -15.258789, -62.713623, -47.348022
1491873311.758432, 1491873311.760893, -0.199768, +1.022644, -0.078735, -15.258789, -62.713623, -48.309326
1491873311.761165, 1491873311.763589, -0.199768, +1.022644, -0.050537, -16.952515, -69.137573, -48.309326
1491873311.763864, 1491873311.766284, -0.230896, +0.940979, -0.050537, -16.952515, -76.950073, -48.797607
1491873311.766558, 1491873311.768984, -0.230896, +0.940979, -0.050537, -18.081665, -75.561523, -48.797607
1491873311.769258, 1491873311.771692, -0.230896, +0.940979, -0.050537, -18.081665, -80.429077, -48.934937
1491873311.771967, 1491873311.774383, -0.230896, +0.958740, +0.013000, -19.149780, -80.429077, -48.934937
1491873311.774659, 1491873311.777080, -0.215515, +0.958740, +0.013000, -23.056030, -85.189819, -49.377441
1491873311.777355, 1491873311.779779, -0.215515, +0.958740, +0.013000, -19.561768, -85.189819, -49.377441
1491873311.780093, 1491873311.782391, -0.215515, +0.958740, +0.013000, -15.655518, -91.308594, -49.041748
1491873311.782658, 1491873311.784957, -0.125061, +0.957275, +0.083862, -18.173218, -91.308594, -49.041748
1491873311.785225, 1491873311.787523, -0.125061, +0.957275, +0.083862, -18.173218, -96.862793, -49.026489
1491873311.787790, 1491873311.790146, -0.125061, +0.957275, +0.083862, -16.357422, -96.862793, -49.026489
1491873311.790422, 1491873311.792844, -0.125061, +0.957275, +0.083862, -16.357422, -101.165771, -49.591064
1491873311.793119, 1491873311.795538, -0.150879, +1.092407, +0.126343, -13.549805, -101.165771, -49.591064
1491873311.795811, 1491873311.798229, -0.150879, +1.092407, +0.126343, -13.549805, -104.736328, -51.361084
1491873311.798503, 1491873311.800940, -0.150879, +1.092407, +0.126343, -13.305664, -104.736328, -51.361084
1491873311.801213, 1491873311.803630, -0.150879, +1.092407, +0.126343, -16.494751, -109.909058, -55.999756
1491873311.803902, 1491873311.806323, -0.247009, +1.167297, +0.063171, -16.494751, -109.909058, -55.999756
1491873311.806596, 1491873311.809022, -0.247009, +1.167297, +0.063171, -22.232056, -117.706299, -62.271118
1491873311.809298, 1491873311.811732, -0.247009, +1.167297, +0.063171, -22.232056, -117.706299, -62.271118
1491873311.812006, 1491873311.814428, -0.247009, +1.073547, -0.153442, -25.268555, -118.957520, -66.268921
1491873311.814702, 1491873311.817115, +0.065552, +1.044250, -0.153442, -25.268555, -118.957520, -66.268921
1491873311.817500, 1491873311.819916, +0.065552, +1.044250, -0.153442, -24.917603, -114.044189, -69.702148
1491873311.820201, 1491873311.822625, +0.065552, +1.044250, -0.153442, -24.917603, -114.044189, -69.702148
1491873311.822899, 1491873311.825319, +0.413269, +0.841370, -0.436523, -23.941040, -102.752686, -69.931030
1491873311.825593, 1491873311.828022, +0.413269, +0.841370, -0.436523, -23.941040, -102.752686, -69.931030
1491873311.828296, 1491873311.830699, +0.413269, +0.841370, -0.436523, -22.293091, -86.135864, -72.128296
1491873311.830966, 1491873311.833260, +0.413269, +0.841370, -0.436523, -22.293091, -86.135864, -72.128296
1491873311.833525, 1491873311.835825, +0.224304, +1.132324, -0.171021, -17.410278, -62.789917, -75.927734
1491873311.836091, 1491873311.838383, +0.224304, +1.132324, -0.171021, -17.410278, -62.789917, -75.927734
1491873311.838650, 1491873311.840946, +0.224304, +1.132324, -0.171021, -12.542725, -34.072876, -77.972412
1491873311.841213, 1491873311.843513, +0.224304, +1.132324, -0.171021, -12.542725, -34.072876, -77.972412
1491873311.843782, 1491873311.846073, -0.031311, +1.268188, +0.065369, -11.611938, -11.138916, -79.223633
1491873311.846341, 1491873311.848637, -0.031311, +1.268188, +0.065369, -11.611938, -11.138916, -79.223633
1491873311.848902, 1491873311.851327, -0.031311, +1.268188, +0.065369, -15.441895, -5.661011, -82.244873
1491873311.851600, 1491873311.854019, -0.031311, +1.268188, +0.065369, -15.441895, -5.661011, -82.244873
1491873311.854289, 1491873311.856714, -0.558105, +0.990601, +0.301758, -21.881104, -10.437012, -81.817627
1491873311.856988, 1491873311.859410, -0.558105, +0.990601, +0.301758, -21.881104, -10.437012, -81.817627
1491873311.859686, 1491873311.862115, -0.558105, +0.990601, +0.301758, -24.429321, -11.566162, -78.216553
1491873311.862389, 1491873311.864812, -0.558105, +0.990601, +0.254883, -24.429321, -11.566162, -78.216553
1491873311.865087, 1491873311.867510, -0.542358, +0.971741, +0.265137, -23.162842, -5.645752, -73.989868
1491873311.867781, 1491873311.870213, -0.542358, +0.971741, +0.265137, -23.162842, -5.645752, -73.989868
1491873311.870484, 1491873311.872906, -0.542358, +0.971741, +0.265137, -20.736694, -0.457764, -72.860718
1491873311.873178, 1491873311.875604, -0.542358, +1.150818, -0.156555, -20.736694, -0.457764, -72.860718
1491873311.875876, 1491873311.878305, -0.174866, +1.150818, -0.156555, -23.193359, -2.578735, -75.088501
1491873311.878576, 1491873311.880960, -0.174866, +1.150818, -0.156555, -23.193359, -2.578735, -75.088501
1491873311.881226, 1491873311.883520, -0.174866, +1.150818, -0.156555, -29.312134, -7.156372, -77.346802
1491873311.883782, 1491873311.886078, +0.097412, +1.169128, -0.449707, -29.312134, -7.156372, -77.346802
1491873311.886342, 1491873311.888640, +0.097412, +1.169128, -0.449707, -32.546997, -12.207031, -81.085205
1491873311.888906, 1491873311.891317, +0.097412, +1.169128, -0.449707, -32.546997, -12.207031, -81.085205
1491873311.891591, 1491873311.894010, +0.097412, +1.169128, -0.449707, -31.372070, -16.754150, -87.738037
1491873311.894285, 1491873311.896708, -0.157654, +1.101562, -0.500427, -31.372070, -16.754150, -87.738037
1491873311.896982, 1491873311.899404, -0.157654, +1.101562, -0.500427, -32.409668, -22.354126, -91.918945
1491873311.899680, 1491873311.902107, -0.157654, +1.101562, -0.500427, -32.409668, -22.354126, -91.918945
1491873311.902381, 1491873311.904801, -0.157654, +1.101562, -0.500427, -35.964966, -29.098511, -90.164185
1491873311.905075, 1491873311.907503, -0.596558, +1.066956, -0.160034, -35.964966, -29.098511, -90.164185
1491873311.907777, 1491873311.910204, -0.596558, +1.066956, -0.160034, -36.590576, -33.721924, -85.754395
1491873311.910476, 1491873311.912908, -0.596558, +1.066956, -0.160034, -36.590576, -33.721924, -85.754395
1491873311.913182, 1491873311.915597, -0.596558, +1.066956, +0.106567, -38.070679, -35.507202, -82.977295
1491873311.915870, 1491873311.918290, -0.570740, +0.879822, +0.106567, -38.070679, -35.507202, -79.071045
1491873311.918564, 1491873311.921001, -0.570740, +0.879822, +0.106567, -42.526245, -35.446167, -79.315186
1491873311.921382, 1491873311.923808, -0.570740, +0.879822, +0.106567, -42.526245, -35.446167, -74.218750
1491873311.924081, 1491873311.926499, -0.476990, +0.960938, +0.108398, -47.119141, -35.415649, -74.218750
1491873311.926776, 1491873311.929196, -0.481934, +0.960938, +0.108398, -47.119141, -35.415649, -70.281982
1491873311.929472, 1491873311.931809, -0.481934, +0.960938, +0.108398, -49.011230, -34.133911, -70.281982
1491873311.932078, 1491873311.934382, -0.481934, +0.960938, +0.108398, -49.011230, -34.133911, -67.779541
1491873311.934650, 1491873311.936948, -0.468018, +0.964966, +0.005493, -49.331665, -33.264160, -67.779541
1491873311.937215, 1491873311.939518, -0.468018, +0.964966, +0.005493, -49.331665, -33.264160, -65.032959
1491873311.939784, 1491873311.942256, -0.468018, +0.964966, +0.005493, -50.903320, -32.165527, -65.032959
1491873311.942532, 1491873311.944951, -0.468018, +0.964966, +0.005493, -50.903320, -32.165527, -61.599731
1491873311.945225, 1491873311.947649, -0.607910, +1.224060, +0.152161, -52.062988, -31.417847, -61.599731
1491873311.947926, 1491873311.950359, -0.607910, +1.224060, +0.152161, -52.062988, -31.417847, -57.205200
1491873311.950634, 1491873311.953059, -0.607910, +1.224060, +0.152161, -52.627563, -32.806396, -57.205200
1491873311.953332, 1491873311.955760, -0.607910, +1.224060, +0.152161, -52.627563, -32.806396, -53.237915
1491873311.956033, 1491873311.958458, -0.538879, +1.225891, +0.181458, -55.114746, -34.759521, -53.237915
1491873311.958730, 1491873311.961163, -0.538879, +1.225891, +0.181458, -55.114746, -38.146973, -49.942017
1491873311.961439, 1491873311.963865, -0.538879, +1.225891, +0.181458, -55.938721, -38.146973, -49.942017
1491873311.964140, 1491873311.966561, -0.538879, +1.225891, +0.175232, -52.032471, -40.527344, -47.775269
1491873311.966834, 1491873311.969260, -0.475342, +1.151184, +0.175232, -54.672241, -40.527344, -47.775269
1491873311.969533, 1491873311.971883, -0.475342, +1.151184, +0.175232, -52.963257, -40.512085, -45.944214
1491873311.972148, 1491873311.974446, -0.475342, +1.151184, +0.175232, -52.963257, -40.512085, -45.944214
1491873311.974711, 1491873311.977016, -0.475342, +1.170593, +0.173401, -52.963257, -37.338257, -43.579102
1491873311.977281, 1491873311.979577, -0.416199, +1.170593, +0.173401, -50.872803, -37.338257, -43.579102
1491873311.979843, 1491873311.982193, -0.416199, +1.170593, +0.173401, -46.966553, -33.401489, -41.442871
1491873311.982460, 1491873311.984758, -0.416199, +1.170593, +0.173401, -48.995972, -33.401489, -41.442871
1491873311.985025, 1491873311.987318, -0.275574, +1.072449, +0.151978, -48.995972, -27.343750, -39.825439
1491873311.987584, 1491873311.989875, -0.238770, +1.072449, +0.151978, -48.583984, -27.343750, -39.825439
1491873311.990138, 1491873311.992442, -0.238770, +1.072449, +0.151978, -48.583984, -23.437500, -39.154053
1491873311.992707, 1491873311.995001, -0.238770, +1.072449, +0.151978, -48.339844, -20.477295, -39.154053
1491873311.995266, 1491873311.997565, -0.379395, +0.661926, +0.077820, -48.339844, -20.477295, -39.581299
1491873311.997831, 1491873312.000146, -0.416748, +0.661926, +0.077820, -44.708252, -15.441895, -39.581299
1491873312.000422, 1491873312.002841, -0.416748, +0.661926, +0.077820, -44.708252, -15.441895, -38.925171
1491873312.003115, 1491873312.005538, -0.416748, +0.661926, +0.077820, -40.542603, -12.893677, -38.925171
1491873312.005813, 1491873312.008231, -0.699097, +0.676758, +0.178711, -40.542603, -12.893677, -36.483765
1491873312.008504, 1491873312.010942, -0.699097, +0.676758, +0.178711, -38.284302, -13.626099, -36.483765
1491873312.011213, 1491873312.013641, -0.699097, +0.676758, +0.178711, -38.284302, -15.930176, -32.363892
1491873312.013914, 1491873312.016332, -0.699097, +0.676758, +0.178711, -34.820557, -15.930176, -32.363892
1491873312.016605, 1491873312.019033, -0.701660, +0.676941, +0.321716, -34.820557, -18.295288, -28.060913
1491873312.019307, 1491873312.021738, -0.701660, +0.676941, +0.321716, -30.426025, -18.295288, -28.060913
1491873312.022012, 1491873312.024430, -0.701660, +0.676941, +0.321716, -30.426025, -19.348145, -22.293091
1491873312.024811, 1491873312.027238, -0.701660, +0.676941, +0.390930, -27.847290, -19.348145, -22.293091
1491873312.027511, 1491873312.029930, -0.589233, +0.753113, +0.390930, -25.192261, -17.410278, -17.044067
1491873312.030210, 1491873312.032637, -0.589233, +0.753113, +0.390930, -25.192261, -17.410278, -17.044067
1491873312.032910, 1491873312.035336, -0.589233, +0.753113, +0.390930, -21.530151, -14.114380, -12.817383
1491873312.035609, 1491873312.038032, -0.589233, +0.630981, +0.410706, -21.530151, -14.114380, -12.817383
1491873312.038307, 1491873312.040720, -0.621826, +0.630981, +0.410706, -17.745972, -11.093140, -8.941650
1491873312.040985, 1491873312.043283, -0.621826, +0.630981, +0.410706, -17.745972, -11.093140, -8.941650
1491873312.043548, 1491873312.045841, -0.621826, +0.630981, +0.410706, -15.213013, -9.902954, -5.142212
1491873312.046102, 1491873312.048404, -0.655701, +0.690125, +0.474609, -15.213013, -9.902954, -5.142212
1491873312.048665, 1491873312.051015, -0.655701, +0.690125, +0.474609, -12.771606, -9.216309, -1.113892
1491873312.051285, 1491873312.053705, -0.655701, +0.690125, +0.474609, -12.771606, -9.216309, -1.113892
1491873312.053974, 1491873312.056404, -0.655701, +0.690125, +0.474609, -9.674072, -7.888794, +2.243042
1491873312.056668, 1491873312.059093, -0.529358, +0.664856, +0.436890, -9.674072, -7.888794, +2.243042
1491873312.059359, 1491873312.061792, -0.529358, +0.664856, +0.436890, -7.720947, -5.569458, +4.806519
1491873312.062056, 1491873312.064474, -0.529358, +0.664856, +0.436890, -7.720947, -5.569458, +4.806519
1491873312.064740, 1491873312.067161, -0.529358, +0.664856, +0.436890, -5.432129, -3.738403, +6.942749
1491873312.067426, 1491873312.069854, -0.590881, +0.731323, +0.459595, -5.432129, -3.738403, +6.942749
1491873312.070126, 1491873312.072547, -0.590881, +0.731323, +0.459595, -2.914429, -3.173828, +9.979248
1491873312.072812, 1491873312.075232, -0.590881, +0.731323, +0.459595, -2.914429, -3.173828, +9.979248
1491873312.075497, 1491873312.077925, -0.590881, +0.731323, +0.506470, -1.159668, -4.882812, +13.198853
1491873312.078194, 1491873312.080618, -0.597839, +0.929626, +0.493286, -1.159668, -4.882812, +13.198853
1491873312.080885, 1491873312.083313, -0.597839, +0.929626, +0.493286, +1.647949, -7.965088, +16.433716
1491873312.083580, 1491873312.085996, -0.597839, +0.929626, +0.493286, +1.647949, -7.965088, +16.433716
1491873312.086265, 1491873312.088689, -0.597839, +1.174438, +0.390564, +4.760742, -8.010864, +20.202637
1491873312.088958, 1491873312.091334, -0.432861, +1.174438, +0.390564, +4.760742, -8.010864, +20.202637
1491873312.091596, 1491873312.093887, -0.432861, +1.174438, +0.390564, +6.546021, -2.990723, +23.513794
1491873312.094147, 1491873312.096441, -0.432861, +1.174438, +0.390564, +6.546021, -2.990723, +23.513794
1491873312.096703, 1491873312.099001, -0.385986, +1.132874, +0.297729, +9.124756, +3.448486, +26.535034
1491873312.099262, 1491873312.101608, -0.416565, +1.132874, +0.297729, +9.124756, +3.448486, +26.535034
1491873312.101868, 1491873312.104164, -0.416565, +1.132874, +0.297729, +11.627197, +7.003784, +28.457642
1491873312.104426, 1491873312.106713, -0.416565, +1.132874, +0.297729, +11.627197, +7.003784, +28.457642
1491873312.106976, 1491873312.109271, -0.536499, +1.039856, +0.323364, +14.831543, +6.454468, +30.349731
1491873312.109534, 1491873312.111949, -0.536499, +1.039856, +0.323364, +14.831543, +6.454468, +30.349731
1491873312.112220, 1491873312.114648, -0.536499, +1.039856, +0.323364, +17.684937, +3.952026, +32.333374
1491873312.114918, 1491873312.117337, -0.536499, +1.039856, +0.323364, +17.684937, +3.952026, +32.333374
1491873312.117610, 1491873312.120033, -0.412720, +1.162903, +0.522766, +19.165039, +2.365112, +35.049438
1491873312.120349, 1491873312.122776, -0.412720, +1.162903, +0.522766, +19.165039, +2.365112, +35.049438
1491873312.123046, 1491873312.125477, -0.412720, +1.162903, +0.522766, +21.835327, +2.777100, +35.446167
1491873312.125748, 1491873312.128168, -0.412720, +1.162903, +0.522766, +21.835327, +2.777100, +35.446167
1491873312.128545, 1491873312.131206, -0.369324, +1.305359, +0.584106, +24.871826, +2.853394, +35.156250
1491873312.131472, 1491873312.133776, -0.369324, +1.305359, +0.584106, +24.871826, +2.853394, +35.156250
1491873312.134040, 1491873312.136335, -0.369324, +1.305359, +0.584106, +27.847290, +2.838135, +35.034180
1491873312.136598, 1491873312.138892, -0.369324, +1.305359, +0.584106, +27.847290, +2.838135, +35.034180
1491873312.139156, 1491873312.141637, -0.309265, +1.602905, +0.584106, +31.127930, +2.319336, +34.820557
1491873312.141900, 1491873312.144200, -0.309265, +1.602905, +0.584106, +31.127930, +2.319336, +34.820557
1491873312.144464, 1491873312.146852, -0.309265, +1.602905, +0.584106, +34.835815, +2.746582, +35.125732
1491873312.147115, 1491873312.149416, -0.309265, +1.563171, +0.436340, +34.835815, +2.746582, +35.125732
1491873312.150336, 1491873312.152757, -0.400269, +1.563171, +0.436340, +39.016724, +2.532959, +35.537720
1491873312.153029, 1491873312.155457, -0.400269, +1.563171, +0.436340, +39.016724, +2.532959, +38.650513
1491873312.155729, 1491873312.158154, -0.400269, +1.563171, +0.436340, +43.029785, +1.037598, +38.650513
1491873312.158424, 1491873312.160885, -0.469849, +1.523438, +0.333984, +43.029785, -2.868652, +42.007446
1491873312.161157, 1491873312.163574, -0.469849, +1.523438, +0.333984, +47.668457, -2.182007, +42.007446
1491873312.163843, 1491873312.166260, -0.469849, +1.523438, +0.333984, +47.668457, -3.524780, +45.608521
1491873312.166531, 1491873312.168953, -0.469849, +1.523438, +0.333984, +52.597046, -3.524780, +45.608521
1491873312.169224, 1491873312.171690, -0.324829, +1.368347, +0.216064, +56.503296, -1.342773, +48.660278
1491873312.171960, 1491873312.174384, -0.324829, +1.368347, +0.216064, +57.006836, -1.342773, +48.660278
1491873312.174653, 1491873312.177074, -0.324829, +1.368347, +0.216064, +61.798096, +3.814697, +52.963257
1491873312.177346, 1491873312.179767, -0.324829, +1.274597, +0.241882, +61.798096, +3.814697, +52.963257
1491873312.180036, 1491873312.182381, -0.424255, +1.281189, +0.241882, +67.260742, +8.178711, +58.227539
1491873312.182645, 1491873312.184943, -0.424255, +1.281189, +0.241882, +67.260742, +8.178711, +58.227539
1491873312.185206, 1491873312.187501, -0.424255, +1.281189, +0.241882, +72.677612, +9.460449, +67.092896
1491873312.187765, 1491873312.190111, -0.424255, +1.309753, +0.331970, +72.677612, +9.460449, +67.092896
1491873312.190375, 1491873312.192671, -0.437622, +1.309753, +0.331970, +80.490112, +9.872437, +77.774048
1491873312.192936, 1491873312.195227, -0.437622, +1.309753, +0.331970, +78.475952, +9.872437, +77.774048
1491873312.195493, 1491873312.197794, -0.437622, +1.309753, +0.331970, +78.475952, +9.475708, +90.148926
1491873312.198058, 1491873312.200665, -0.437622, +1.420532, +0.443481, +86.608887, +9.475708, +90.148926
1491873312.200933, 1491873312.203239, -0.390930, +1.420532, +0.443481, +90.515137, +9.429932, +103.683472
1491873312.203506, 1491873312.205892, -0.390930, +1.420532, +0.443481, +93.139648, +9.429932, +103.683472
1491873312.206157, 1491873312.208445, -0.390930, +1.420532, +0.443481, +100.952148, +7.431030, +120.178223
1491873312.208707, 1491873312.211265, -0.367310, +1.695740, +0.551514, +99.472046, +7.431030, +120.178223
1491873312.211531, 1491873312.213822, -0.367310, +1.695740, +0.551514, +105.239868, -0.869751, +138.473511
1491873312.214088, 1491873312.216379, -0.367310, +1.695740, +0.551514, +105.239868, -0.869751, +138.473511
1491873312.216643, 1491873312.218940, -0.367310, +1.695740, +0.551514, +113.052368, -12.985229, +160.049438
1491873312.219206, 1491873312.221655, -0.142273, +2.156433, +0.703857, +110.336304, -12.985229, +160.049438
1491873312.221928, 1491873312.224318, -0.142273, +2.156433, +0.703857, +114.242554, -31.311035, +185.577393
1491873312.224593, 1491873312.227835, -0.142273, +2.156433, +0.703857, +115.814209, -31.311035, +185.577393
1491873312.228111, 1491873312.230510, -0.142273, +3.328308, +1.066223, +119.903564, -54.260254, +212.295532
1491873312.230778, 1491873312.233078, +0.714111, +3.336731, +1.066223, +119.903564, -54.260254, +212.295532
1491873312.233472, 1491873312.235771, +0.714111, +3.336731, +1.066223, +129.501343, -66.345215, +234.191895
1491873312.236037, 1491873312.238602, +0.714111, +3.336731, +1.066223, +129.501343, -66.345215, +234.191895
1491873312.238872, 1491873312.241287, +2.349976, +5.419556, +1.098083, +135.147095, -75.103760, +268.020630
1491873312.241559, 1491873312.243982, +2.349976, +5.419556, +1.098083, +135.147095, -75.103760, +268.020630
1491873312.244254, 1491873312.246683, +2.349976, +5.419556, +1.098083, +124.984741, -64.636230, +300.674438
1491873312.246955, 1491873312.249375, +2.349976, +5.419556, +1.098083, +124.984741, -64.636230, +300.674438
1491873312.249645, 1491873312.252113, +2.325073, +5.939575, +0.513611, +115.188599, -42.541504, +291.778564
1491873312.252386, 1491873312.254803, +2.325073, +5.939575, +0.513611, +115.188599, -42.541504, +291.778564
1491873312.255076, 1491873312.257497, +2.325073, +5.939575, +0.513611, +91.918945, -43.289185, +260.696411
1491873312.257769, 1491873312.260202, +2.325073, +5.939575, +0.513611, +91.918945, -43.289185, +182.571411
1491873312.260467, 1491873312.262762, -1.183044, +5.537292, +0.017029, +72.448730, -11.779785, +180.892944
1491873312.263029, 1491873312.265322, -1.183044, +5.537292, +0.017029, +72.448730, -11.779785, +180.892944
1491873312.265589, 1491873312.267887, -1.183044, +5.537292, +0.017029, +29.373169, -19.104004, +127.227783
1491873312.268151, 1491873312.270529, -1.183044, +5.537292, +0.017029, +29.373169, -19.104004, +127.227783
1491873312.270794, 1491873312.273094, -5.330750, +3.904724, -0.317322, -0.869751, -94.970703, +166.030884
1491873312.273357, 1491873312.275653, -5.330750, +3.904724, -0.317322, -0.869751, -94.970703, +166.030884
1491873312.275915, 1491873312.278214, -5.330750, +3.904724, -0.317322, -16.098022, -170.974731, +182.785034
1491873312.278480, 1491873312.280826, -5.330750, +3.904724, +0.385803, -16.098022, -170.974731, +182.785034
1491873312.281094, 1491873312.283390, -2.959167, +2.264648, +0.375916, -49.346924, -167.022705, +141.921997
1491873312.283658, 1491873312.285956, -2.959167, +2.264648, +0.375916, -49.346924, -167.022705, +141.921997
1491873312.286221, 1491873312.288522, -2.959167, +2.264648, +0.375916, -49.896240, -134.246826, +96.633911
1491873312.288788, 1491873312.291235, -2.959167, +2.264648, -0.958374, -49.896240, -134.246826, +96.633911
1491873312.291508, 1491873312.293936, +0.181824, +2.007568, -0.958374, -77.224731, -103.240967, +9.735107
1491873312.294207, 1491873312.296627, +0.181824, +2.007568, -0.958374, -77.224731, -103.240967, +9.735107
1491873312.296898, 1491873312.299320, +0.181824, +2.007568, -0.958374, -101.364136, -40.969849, -62.637329
1491873312.299594, 1491873312.302020, -1.083801, +0.712463, -0.475891, -101.364136, -40.969849, -62.637329
1491873312.302294, 1491873312.304717, -1.096069, +0.712463, -0.475891, -117.263794, +28.213501, -111.663818
1491873312.304990, 1491873312.307410, -1.096069, +0.712463, -0.475891, -117.263794, +28.213501, -111.663818
1491873312.307685, 1491873312.310121, -1.096069, +0.712463, -0.475891, -114.105225, +69.534302, -145.065308
1491873312.310393, 1491873312.312810, -0.781677, +0.993347, -0.725647, -114.105225, +69.534302, -164.596558
1491873312.313085, 1491873312.315511, -0.781677, +0.993347, -0.725647, -100.265503, +75.210571, -166.397095
1491873312.315787, 1491873312.318208, -0.781677, +0.993347, -0.725647, -100.265503, +75.210571, -185.836792
1491873312.318481, 1491873312.320912, -0.781677, +0.993347, -0.725647, -86.166382, +73.455811, -185.836792
1491873312.321187, 1491873312.323609, +0.025452, +1.347656, -0.991516, -86.166382, +73.455811, -201.309204
1491873312.323884, 1491873312.326306, +0.025452, +1.347656, -0.991516, -75.332642, +67.794800, -201.309204
1491873312.326581, 1491873312.328998, +0.025452, +1.347656, -0.991516, -75.332642, +67.794800, -207.977295
1491873312.329273, 1491873312.331720, +0.025452, +1.347656, -0.981995, -66.589355, +59.753418, -207.977295
1491873312.331993, 1491873312.334417, +0.254517, +1.558411, -0.981995, -66.589355, +51.940918, -207.031250
1491873312.334808, 1491873312.337235, +0.254517, +1.558411, -0.981995, -58.532715, +52.810669, -207.031250
1491873312.337508, 1491873312.339931, +0.254517, +1.558411, -0.981995, -50.720215, +42.480469, -200.485229
1491873312.340215, 1491873312.342639, +0.817017, +1.460266, -0.784973, -50.079346, +42.480469, -200.485229
1491873312.342913, 1491873312.345339, +0.833496, +1.460266, -0.784973, -50.079346, +29.296875, -185.653687
1491873312.345611, 1491873312.348048, +0.833496, +1.460266, -0.784973, -46.905518, +29.296875, -185.653687
1491873312.348322, 1491873312.350726, +0.833496, +1.460266, -0.784973, -43.991089, +35.995483, -164.215088
1491873312.350992, 1491873312.353285, +1.752136, +1.216370, -0.612854, -43.991089, +35.995483, -164.215088
1491873312.353550, 1491873312.355847, +1.752136, +1.216370, -0.612854, -31.433105, +60.226440, -152.206421
1491873312.356114, 1491873312.358409, +1.752136, +1.216370, -0.612854, -31.433105, +60.226440, -152.206421
1491873312.358674, 1491873312.361016, +1.752136, +1.216370, -0.612854, -11.901855, +77.133179, -144.683838
1491873312.361289, 1491873312.363713, +1.741516, +0.872498, -1.042236, -15.289307, +77.133179, -144.683838
1491873312.363986, 1491873312.366410, +1.741516, +0.872498, -1.042236, -4.058838, +82.595825, -130.554199
1491873312.366681, 1491873312.369101, +1.741516, +0.872498, -1.042236, -4.058838, +82.595825, -130.554199
1491873312.369371, 1491873312.371799, +1.741516, +0.872498, -1.042236, +0.778198, +89.401245, -112.243652
1491873312.372070, 1491873312.374494, +1.552185, +0.852173, -0.842102, +0.778198, +89.401245, -112.243652
1491873312.374764, 1491873312.377187, +1.552185, +0.852173, -0.842102, +5.203247, +96.237183, -95.703125
1491873312.377459, 1491873312.379878, +1.552185, +0.852173, -0.842102, +5.203247, +96.237183, -95.703125
1491873312.380157, 1491873312.382461, +1.552185, +0.852173, -0.633362, +9.872437, +95.214844, -82.351685
1491873312.382727, 1491873312.385021, +1.093323, +0.931458, -0.633362, +9.872437, +95.214844, -82.351685
1491873312.385286, 1491873312.387583, +1.093323, +0.931458, -0.633362, +12.542725, +89.630127, -71.655273
1491873312.387849, 1491873312.390222, +1.093323, +0.931458, -0.633362, +12.542725, +89.630127, -71.655273
1491873312.390509, 1491873312.392813, +1.093323, +1.165833, -0.383423, +11.138916, +87.173462, -61.080933
1491873312.393081, 1491873312.395376, +0.505005, +1.148621, -0.383423, +11.138916, +87.173462, -61.080933
1491873312.395643, 1491873312.397938, +0.505005, +1.148621, -0.383423, +10.971069, +89.263916, -51.651001
1491873312.398205, 1491873312.400650, +0.505005, +1.148621, -0.383423, +10.971069, +89.263916, -51.651001
1491873312.400925, 1491873312.403344, +0.505005, +1.600525, -0.287476, +10.772705, +77.835083, -47.332764
1491873312.403618, 1491873312.406045, -0.119934, +1.600525, -0.287476, +10.772705, +77.835083, -47.332764
1491873312.406321, 1491873312.408741, -0.119934, +1.600525, -0.287476, +2.868652, +60.455322, -46.112061
1491873312.409013, 1491873312.411436, -0.119934, +1.600525, -0.287476, +2.868652, +60.455322, -46.112061
1491873312.411707, 1491873312.414126, -0.530640, +2.255127, -0.140442, -5.203247, +63.644409, -45.425415
1491873312.414398, 1491873312.416817, -0.530640, +2.255127, -0.140442, -5.203247, +63.644409, -45.425415
1491873312.417089, 1491873312.419512, -0.530640, +2.255127, -0.140442, -10.604858, +80.123901, -43.563843
1491873312.419785, 1491873312.422107, -0.530640, +2.255127, -0.140442, -10.604858, +80.123901, -43.563843
1491873312.422373, 1491873312.424671, -1.282837, +2.164307, -0.028748, -15.609741, +94.039917, -40.878296
1491873312.424938, 1491873312.427235, -1.282837, +2.164307, -0.028748, -15.609741, +94.039917, -40.878296
1491873312.427502, 1491873312.429800, -1.282837, +2.164307, -0.028748, -18.234253, +110.458374, -38.162231
1491873312.430102, 1491873312.432516, -1.282837, +2.164307, -0.028748, -18.234253, +110.458374, -38.162231
1491873312.432789, 1491873312.435158, -1.737305, +1.695374, +0.144287, -17.471313, +124.969482, -33.981323
1491873312.435526, 1491873312.437823, -1.737305, +1.695374, +0.144287, -17.471313, +124.969482, -33.981323
1491873312.438087, 1491873312.440574, -1.737305, +1.695374, +0.144287, -13.626099, +137.008667, -31.799316
1491873312.440845, 1491873312.443234, -1.737305, +1.695374, +0.331787, -13.626099, +137.008667, -31.799316
1491873312.443504, 1491873312.446004, -1.755066, +1.349670, +0.331238, -8.682251, +151.062012, -36.636353
1491873312.446288, 1491873312.448681, -1.755066, +1.349670, +0.331238, -8.682251, +151.062012, -36.636353
1491873312.449695, 1491873312.452136, -1.755066, +1.349670, +0.331238, -7.125854, +167.572021, -47.668457
1491873312.452410, 1491873312.454834, -1.682190, +1.369446, +0.339661, -7.125854, +167.572021, -59.387207
1491873312.455105, 1491873312.457535, -1.682190, +1.369446, +0.339661, -8.331299, +184.494019, -60.043335
1491873312.457805, 1491873312.460234, -1.682190, +1.369446, +0.339661, -8.331299, +184.494019, -68.374634
1491873312.460501, 1491873312.462807, -1.682190, +1.369446, +0.339661, -10.543823, +196.548462, -68.374634
1491873312.463074, 1491873312.465374, -1.808533, +1.276062, +0.302124, -10.543823, +196.548462, -76.187134
1491873312.465639, 1491873312.467933, -1.808533, +1.276062, +0.302124, -11.032104, +198.806763, -75.469971
1491873312.468198, 1491873312.470516, -1.808533, +1.276062, +0.302124, -11.032104, +198.806763, -83.282471
1491873312.470787, 1491873312.473086, -1.808533, +1.276062, +0.302124, -11.398315, +187.408447, -83.358765
1491873312.473354, 1491873312.475645, -1.940552, +1.036560, +0.010620, -11.398315, +187.408447, -83.358765
1491873312.475912, 1491873312.478213, -1.940552, +1.036560, +0.010620, -10.040283, +162.017822, -88.043213
1491873312.478480, 1491873312.480825, -1.940552, +1.036560, +0.010620, -10.040283, +162.017822, -88.043213
1491873312.481092, 1491873312.483388, -1.940552, +1.036560, +0.010620, -8.819580, +126.602173, -91.690063
1491873312.483654, 1491873312.485954, -1.902466, +0.538513, -0.170654, -8.819580, +126.602173, -91.690063
1491873312.486216, 1491873312.488510, -1.902466, +0.538513, -0.170654, -8.499146, +90.621948, -93.627930
1491873312.488774, 1491873312.491085, -1.902466, +0.538513, -0.170654, -8.499146, +90.621948, -93.627930
1491873312.491350, 1491873312.493645, -1.902466, +0.538513, -0.170654, -8.483887, +57.540894, -94.711304
1491873312.493910, 1491873312.496200, -1.695007, -0.018127, -0.185669, -8.483887, +57.540894, -94.711304
1491873312.496464, 1491873312.498765, -1.695007, -0.018127, -0.185669, -6.881714, +27.572632, -94.009399
1491873312.499027, 1491873312.501395, -1.695007, -0.018127, -0.185669, -6.881714, +27.572632, -94.009399
1491873312.501659, 1491873312.503959, -1.695007, -0.018127, -0.185669, -2.700806, +1.220703, -90.621948
1491873312.504220, 1491873312.506518, -1.224426, -0.654236, -0.167725, -2.700806, +1.220703, -90.621948
1491873312.506780, 1491873312.509070, -1.224426, -0.654236, -0.167725, +0.320435, -19.470215, -80.825806
1491873312.509335, 1491873312.511844, -1.224426, -0.654236, -0.167725, +0.320435, -19.470215, -80.825806
1491873312.512116, 1491873312.514535, -1.224426, -0.654236, -0.069763, -0.701904, -36.209106, -67.123413
1491873312.514806, 1491873312.517224, -0.437805, -1.357178, -0.069763, -0.701904, -36.209106, -67.123413
1491873312.517495, 1491873312.519921, -0.437805, -1.357178, -0.069763, -5.966187, -48.660278, -53.085327
1491873312.520201, 1491873312.522498, -0.437805, -1.357178, -0.069763, -5.966187, -48.660278, -53.085327
1491873312.522762, 1491873312.525060, -0.437805, -2.550293, +0.044495, -13.000488, -59.127808, -36.651611
1491873312.525327, 1491873312.527630, +0.376831, -2.550293, +0.044495, -13.000488, -59.127808, -36.651611
1491873312.527896, 1491873312.530206, +0.376831, -2.550293, +0.044495, -20.370483, -71.273804, -20.553589
1491873312.530480, 1491873312.532908, +0.376831, -2.550293, +0.044495, -20.370483, -71.273804, -20.553589
1491873312.533181, 1491873312.535599, +1.267456, -4.075928, -0.039551, -23.010254, -84.579468, -3.387451
1491873312.535868, 1491873312.538289, +1.293274, -4.075928, -0.039551, -23.010254, -84.579468, -3.387451
1491873312.538680, 1491873312.541115, +1.293274, -4.075928, -0.039551, -18.676758, -100.601196, +13.870239
1491873312.541387, 1491873312.543805, +1.293274, -4.075928, -0.039551, -18.676758, -100.601196, +13.870239
1491873312.544077, 1491873312.546493, +2.376343, -4.822266, -0.346619, -9.170532, -120.361328, +25.665283
1491873312.546764, 1491873312.549188, +2.376343, -4.822266, -0.346619, -9.170532, -120.361328, +25.665283
1491873312.549457, 1491873312.551886, +2.376343, -4.822266, -0.346619, -0.564575, -139.938354, +28.884888
1491873312.552156, 1491873312.554583, +2.376343, -4.822266, -0.346619, -0.564575, -139.938354, +28.884888
1491873312.554853, 1491873312.557271, +3.315674, -4.881226, -0.669617, +7.171631, -152.206421, +26.916504
1491873312.557540, 1491873312.559964, +3.315674, -4.881226, -0.669617, +7.171631, -152.206421, +26.916504
1491873312.560238, 1491873312.562664, +3.315674, -4.881226, -0.669617, +15.991211, -150.039673, +23.788452
1491873312.562939, 1491873312.565363, +3.315674, -4.881226, -0.719604, +15.991211, -150.039673, +19.882202
1491873312.565636, 1491873312.568190, +3.916077, -5.518433, -0.719604, +32.669067, -136.657715, +22.338867
1491873312.568463, 1491873312.570862, +3.916077, -5.518433, -0.719604, +32.669067, -136.657715, +23.086548
1491873312.571127, 1491873312.573427, +3.916077, -5.518433, -0.719604, +51.818848, -113.327026, +23.086548
1491873312.573691, 1491873312.575989, +3.916077, -5.571533, -0.425903, +51.818848, -113.327026, +25.985718
1491873312.576253, 1491873312.578553, +3.921753, -5.571533, -0.425903, +66.833496, -85.128784, +25.985718
1491873312.578818, 1491873312.581166, +3.921753, -5.571533, -0.425903, +66.833496, -85.128784, +33.798218
1491873312.581440, 1491873312.583863, +3.921753, -5.571533, -0.425903, +80.032349, -59.509277, +31.692505
1491873312.584137, 1491873312.586563, +3.258728, -4.694458, -0.106567, +80.032349, -59.509277, +41.748047
1491873312.586837, 1491873312.589261, +3.258728, -4.694458, -0.106567, +88.211060, -41.549683, +41.748047
1491873312.589536, 1491873312.591968, +3.258728, -4.694458, -0.106567, +88.211060, -41.549683, +52.536011
1491873312.592241, 1491873312.594659, +3.258728, -4.694458, -0.106567, +92.468262, -21.286011, +52.536011
1491873312.594932, 1491873312.597350, +2.984070, -4.075928, +0.067200, +92.468262, +9.963989, +57.479858
1491873312.597623, 1491873312.600087, +2.984070, -4.075928, +0.067200, +93.551636, +9.277344, +57.479858
1491873312.600364, 1491873312.602660, +2.984070, -4.075928, +0.067200, +93.551636, +52.246094, +60.745239
1491873312.602926, 1491873312.605223, +2.984070, -4.075928, +0.067200, +91.140747, +50.781250, +60.745239
1491873312.605489, 1491873312.607784, +2.357666, -3.355774, +0.220276, +91.140747, +89.843750, +60.409546
1491873312.608050, 1491873312.610357, +2.357666, -3.355774, +0.220276, +84.777832, +91.674805, +60.409546
1491873312.610622, 1491873312.612919, +2.357666, -3.355774, +0.220276, +84.777832, +91.674805, +58.609009
1491873312.613185, 1491873312.615482, +2.357666, -3.355774, +0.220276, +78.079224, +121.551514, +58.609009
1491873312.615746, 1491873312.618042, +1.323853, -2.586365, +0.301575, +78.079224, +121.551514, +59.295654
1491873312.618307, 1491873312.620766, +1.323853, -2.586365, +0.301575, +67.291260, +136.154175, +59.295654
1491873312.621031, 1491873312.623330, +1.323853, -2.586365, +0.301575, +67.291260, +136.154175, +60.134888
1491873312.623596, 1491873312.625896, +1.323853, -2.586365, +0.442200, +51.681519, +135.208130, +60.134888
1491873312.626162, 1491873312.628457, +0.411987, -1.955017, +0.435425, +51.681519, +135.208130, +64.041138
1491873312.628723, 1491873312.631220, +0.411987, -1.955017, +0.435425, +34.820557, +124.145508, +64.132690
1491873312.631495, 1491873312.633916, +0.411987, -1.955017, +0.435425, +34.820557, +124.145508, +70.556641
1491873312.634189, 1491873312.636611, +0.411987, -1.626892, +0.308716, +22.033691, +105.499268, +70.556641
1491873312.636885, 1491873312.639307, -0.198486, -1.633667, +0.308716, +22.033691, +105.499268, +79.376221
1491873312.639580, 1491873312.642011, -0.198486, -1.633667, +0.308716, +14.877319, +82.778931, +79.376221
1491873312.642399, 1491873312.644822, -0.198486, -1.633667, +0.308716, +14.877319, +59.066772, +87.966919
1491873312.645096, 1491873312.647517, -0.680237, -1.325317, +0.079834, +12.451172, +59.066772, +87.966919
1491873312.647791, 1491873312.650211, -0.680237, -1.325317, +0.079834, +12.451172, +36.437988, +94.192505
1491873312.650486, 1491873312.652907, -0.680237, -1.325317, +0.079834, +10.665894, +36.437988, +94.192505
1491873312.653181, 1491873312.655605, -0.680237, -1.325317, +0.079834, +10.665894, +15.823364, +95.062256
1491873312.655880, 1491873312.658296, -1.162903, -0.929260, +0.132751, +9.643555, +15.823364, +95.062256
1491873312.658567, 1491873312.661003, -1.162903, -0.929260, +0.132751, +10.711670, -3.631592, +92.147827
1491873312.661274, 1491873312.663692, -1.162903, -0.929260, +0.132751, +10.711670, -3.631592, +92.147827
1491873312.663962, 1491873312.666385, -1.162903, -0.929260, +0.132751, +12.374878, -23.361206, +85.876465
1491873312.666659, 1491873312.669080, -1.484436, -0.479370, +0.223755, +12.374878, -23.361206, +85.876465
1491873312.669353, 1491873312.671704, -1.484436, -0.479370, +0.223755, +14.022827, -40.740967, +78.155518
1491873312.671971, 1491873312.674264, -1.484436, -0.479370, +0.223755, +14.022827, -40.740967, +78.155518
1491873312.674530, 1491873312.676827, -1.484436, -0.479370, +0.303589, +12.771606, -55.465698, +72.525024
1491873312.677094, 1491873312.679392, -1.498718, -0.029114, +0.303589, +12.771606, -55.465698, +72.525024
1491873312.679658, 1491873312.682107, -1.498718, -0.029114, +0.303589, +10.559082, -74.005127, +70.205688
1491873312.682382, 1491873312.684803, -1.498718, -0.029114, +0.303589, +10.559082, -74.005127, +70.205688
1491873312.685079, 1491873312.687496, -1.498718, +0.222107, +0.426636, +8.377075, -93.933105, +71.762085
1491873312.687767, 1491873312.690195, -1.395447, +0.222107, +0.426636, +8.377075, -93.933105, +71.762085
1491873312.690467, 1491873312.692887, -1.395447, +0.222107, +0.426636, +5.645752, -103.332520, +70.922852
1491873312.693158, 1491873312.695579, -1.395447, +0.222107, +0.426636, +5.645752, -103.332520, +70.922852
1491873312.695850, 1491873312.698275, -1.066956, +0.476624, +0.347717, +5.386353, -95.657349, +70.281982
1491873312.698545, 1491873312.700978, -1.066956, +0.476624, +0.347717, +5.386353, -95.657349, +70.281982
1491873312.701249, 1491873312.703668, -1.066956, +0.476624, +0.347717, +8.529663, -78.536987, +72.921753
1491873312.703940, 1491873312.706359, -1.066956, +0.476624, +0.347717, +8.529663, -78.536987, +72.921753
1491873312.706632, 1491873312.709056, -0.706055, +0.655518, -0.163696, +15.060425, -65.673828, +74.707031
1491873312.709332, 1491873312.711763, -0.706055, +0.655518, -0.163696, +15.060425, -65.673828, +74.707031
1491873312.712038, 1491873312.714481, -0.706055, +0.655518, -0.163696, +24.978638, -64.758301, +74.493408
1491873312.714755, 1491873312.717174, -0.706055, +0.655518, -0.163696, +24.978638, -64.758301, +74.493408
1491873312.717449, 1491873312.719871, -0.534851, +1.064026, -0.443298, +41.213989, -69.519043, +72.601318
1491873312.720155, 1491873312.722448, -0.534851, +1.064026, -0.443298, +41.213989, -69.519043, +72.601318
1491873312.722715, 1491873312.725009, -0.534851, +1.064026, -0.443298, +58.547974, -73.303223, +75.683594
1491873312.725276, 1491873312.727573, -0.534851, +1.064026, -0.243713, +58.547974, -73.303223, +75.683594
1491873312.727840, 1491873312.730147, -0.158386, +1.538818, -0.243713, +64.971924, -80.917358, +84.945679
1491873312.730414, 1491873312.732711, -0.158386, +1.538818, -0.243713, +64.971924, -80.917358, +84.945679
1491873312.732978, 1491873312.735272, -0.158386, +1.538818, -0.243713, +60.653687, -87.081909, +83.541870
1491873312.735540, 1491873312.737834, -0.158386, +1.538818, +0.334534, +60.653687, -87.081909, +83.541870
1491873312.738100, 1491873312.740433, +0.216980, +2.486023, +0.334534, +47.912598, -86.502075, +87.829590
1491873312.740709, 1491873312.743133, +0.216980, +2.486023, +0.334534, +47.912598, -86.502075, +87.829590
1491873312.743522, 1491873312.745942, +0.216980, +2.486023, +0.334534, +33.721924, -72.372437, +95.428467
1491873312.746214, 1491873312.748640, +0.029480, +2.703369, +0.278870, +33.721924, -72.372437, +95.428467
1491873312.748913, 1491873312.751345, +0.042664, +2.703369, +0.278870, +18.783569, -57.342529, +108.657837
1491873312.751619, 1491873312.754040, +0.042664, +2.703369, +0.278870, +18.783569, -57.342529, +108.657837
1491873312.754314, 1491873312.756734, +0.042664, +2.703369, +0.278870, +5.386353, -53.680420, +131.835938
1491873312.757004, 1491873312.759427, +0.095215, +2.706299, +0.316772, +5.386353, -53.680420, +131.835938
1491873312.759698, 1491873312.762134, +0.095215, +2.706299, +0.316772, -8.468628, -53.802490, +150.314331
1491873312.762405, 1491873312.764825, +0.095215, +2.706299, +0.316772, -8.468628, -53.802490, +150.314331
1491873312.765096, 1491873312.767514, +0.095215, +2.706299, +0.316772, -25.711060, -38.635254, +154.464722
1491873312.767788, 1491873312.770214, +0.605530, +3.289490, +0.316956, -25.711060, -38.635254, +154.464722
1491873312.770489, 1491873312.772908, +0.605530, +3.289490, +0.316956, -40.863037, +14.938354, +145.248413
1491873312.773182, 1491873312.775602, +0.605530, +3.289490, +0.316956, -40.863037, +14.938354, +125.717163
1491873312.775875, 1491873312.778294, +0.605530, +3.289490, -0.198669, -53.039551, +83.633423, +126.144409
1491873312.778569, 1491873312.780964, +0.203064, +3.594177, -0.187683, -53.039551, +83.633423, +106.613159
1491873312.781231, 1491873312.783528, +0.203064, +3.594177, -0.187683, -63.369751, +128.570557, +106.369019
1491873312.783794, 1491873312.786088, +0.203064, +3.594177, -0.187683, -63.369751, +128.570557, +106.369019
1491873312.786354, 1491873312.788643, +0.203064, +3.594177, -0.361816, -72.891235, +161.743164, +82.656860
1491873312.788909, 1491873312.791312, -0.624023, +2.373596, -0.361816, -72.891235, +161.743164, +82.656860
1491873312.791586, 1491873312.794010, -0.624023, +2.373596, -0.361816, -69.335938, +175.857544, +53.863525
1491873312.794283, 1491873312.796704, -0.624023, +2.373596, -0.361816, -69.335938, +175.857544, +18.707275
1491873312.796977, 1491873312.799399, -2.030273, +2.970520, -0.356689, -59.814453, +168.975830, +18.264771
1491873312.799674, 1491873312.802107, -2.042908, +2.970520, -0.356689, -59.814453, +168.975830, -78.872681
1491873312.802380, 1491873312.804800, -2.042908, +2.970520, -0.356689, -58.456421, +165.069580, -78.872681
1491873312.805072, 1491873312.807492, -2.042908, +2.970520, -0.356689, -58.456421, +165.069580, -258.590698
1491873312.807764, 1491873312.810192, -5.998352, +3.438904, -0.140259, -114.364624, +84.686279, -258.590698
1491873312.810466, 1491873312.812886, -5.998352, +3.438904, -0.140259, -114.364624, +84.686279, -448.226929
1491873312.813160, 1491873312.815584, -5.998352, +3.438904, -0.140259, -198.806763, +45.242310, -448.226929
1491873312.815858, 1491873312.818281, -5.998352, +3.438904, -0.140259, -198.806763, +174.148560, -425.323486
1491873312.818555, 1491873312.820993, -5.311890, +5.888306, +2.883362, -314.926147, +171.981812, -425.323486
1491873312.821263, 1491873312.823679, -5.311890, +5.888306, +2.883362, -314.926147, +168.640137, +86.166382
1491873312.823951, 1491873312.826378, -5.311890, +5.888306, +2.883362, -41.549683, +168.640137, +86.166382
1491873312.826649, 1491873312.829071, -5.311890, +5.888306, -3.538513, -18.112183, +413.955688, +257.904053
1491873312.829344, 1491873312.831700, +5.625732, +5.656860, -3.534485, -17.883301, +413.955688, +257.904053
1491873312.831964, 1491873312.834261, +5.625732, +5.656860, -3.534485, -17.883301, -41.198730, -98.205566
1491873312.834523, 1491873312.836817, +5.625732, +5.656860, -3.534485, -403.518677, -41.198730, -98.205566
1491873312.837080, 1491873312.839374, +5.625732, +5.656860, -3.972839, -403.518677, -427.917480, -276.763916
1491873312.839637, 1491873312.841998, +5.657593, -0.935120, -3.972839, -169.616699, -427.597046, -276.763916
1491873312.842264, 1491873312.844559, +5.657593, -0.935120, -3.972839, -169.616699, -322.128296, -62.500000
1491873312.844824, 1491873312.847119, +5.657593, -0.935120, -3.972839, +82.443237, -323.822021, -62.500000
1491873312.847489, 1491873312.849787, +5.657593, +2.282227, +2.907898, +82.443237, +164.459229, -66.680908
1491873312.850087, 1491873312.852521, -3.374084, +2.282227, +2.907898, -76.660156, +165.893555, -66.680908
1491873312.852792, 1491873312.855213, -3.374084, +2.282227, +2.907898, -76.660156, +299.194336, -139.785767
1491873312.855484, 1491873312.857907, -3.374084, +2.282227, +2.907898, -80.245972, +299.194336, -139.785767
1491873312.858179, 1491873312.860608, -5.193054, +5.270142, +2.821655, -80.245972, +113.723755, -141.601562
1491873312.860880, 1491873312.863303, -5.193054, +5.270142, +2.821655, -50.384521, +113.723755, -141.601562
1491873312.863575, 1491873312.865995, -5.193054, +5.270142, +2.821655, -69.915771, +16.967773, -76.126099
1491873312.866266, 1491873312.868691, -5.193054, +5.270142, +2.821655, -68.466187, +16.967773, -76.126099
1491873312.868963, 1491873312.871394, -0.696350, +0.987122, +3.366943, -58.532715, -48.324585, +4.592896
1491873312.871666, 1491873312.874081, -0.696350, +0.987122, +3.366943, -58.532715, -48.324585, +4.592896
1491873312.874353, 1491873312.876773, -0.696350, +0.987122, +3.366943, -20.965576, -27.404785, +31.295776
1491873312.877047, 1491873312.879468, -0.696350, +0.987122, +3.366943, -20.965576, -27.404785, +31.295776
1491873312.879740, 1491873312.882071, +1.574524, +2.028442, -0.090271, -23.605347, +31.509399, +1.327515
1491873312.882333, 1491873312.884631, +1.574524, +2.028442, -0.090271, -23.605347, +31.509399, +1.327515
1491873312.884893, 1491873312.887187, +1.574524, +2.028442, -0.090271, -26.306152, +88.363647, -25.009155
1491873312.887454, 1491873312.889748, +1.574524, +2.028442, -1.262146, -26.306152, +88.363647, -25.009155
1491873312.890012, 1491873312.892436, -1.119690, +1.567932, -1.231567, -10.711670, +59.188843, -26.702881
1491873312.892707, 1491873312.895129, -1.119690, +1.567932, -1.231567, -10.711670, +59.188843, -26.702881
1491873312.895398, 1491873312.897817, -1.119690, +1.567932, -1.231567, +4.806519, +17.410278, -13.290405
1491873312.898082, 1491873312.900516, -1.119690, +1.333557, +0.752563, +4.806519, +17.410278, -13.290405
1491873312.900786, 1491873312.903213, -0.721985, +1.356079, +0.752563, +18.173218, -3.448486, -3.616333
1491873312.903480, 1491873312.905904, -0.721985, +1.356079, +0.752563, +18.173218, -3.448486, -3.616333
1491873312.906173, 1491873312.908597, -0.721985, +1.356079, +0.752563, +28.381348, -6.469727, -0.640869
1491873312.908865, 1491873312.911293, -0.575317, +0.760254, +0.930542, +28.381348, -6.469727, -0.640869
1491873312.911562, 1491873312.913983, -0.575317, +0.760254, +0.930542, +37.063599, -4.898071, +6.027222
1491873312.914251, 1491873312.916677, -0.575317, +0.760254, +0.930542, +37.063599, -4.898071, +6.027222
1491873312.916945, 1491873312.919366, -0.575317, +0.760254, +0.930542, +44.769287, -5.142212, +14.282227
1491873312.919636, 1491873312.922099, -0.510498, +1.307190, +0.506470, +44.769287, -5.142212, +14.282227
1491873312.922370, 1491873312.924792, -0.510498, +1.307190, +0.506470, +48.980713, +3.158569, +19.470215
1491873312.925064, 1491873312.927482, -0.510498, +1.307190, +0.506470, +48.980713, +3.158569, +19.470215
1491873312.927753, 1491873312.930181, -0.510498, +1.307190, +0.506470, +47.409058, +10.040283, +22.659302
1491873312.930448, 1491873312.932741, -0.632446, +1.018799, +0.247559, +47.409058, +10.040283, +22.659302
1491873312.933008, 1491873312.935303, -0.632446, +1.018799, +0.247559, +41.992188, +9.582520, +26.519775
1491873312.935566, 1491873312.937866, -0.632446, +1.018799, +0.247559, +41.992188, +9.582520, +26.519775
1491873312.938128, 1491873312.940491, -0.632446, +1.018799, -0.268066, +35.568237, +10.894775, +29.022217
1491873312.940764, 1491873312.943187, -0.331238, +0.552063, -0.239502, +35.568237, +10.894775, +29.022217
1491873312.943459, 1491873312.945884, -0.331238, +0.552063, -0.239502, +30.639648, +16.647339, +32.012939
1491873312.946158, 1491873312.948577, -0.331238, +0.552063, -0.239502, +30.639648, +16.647339, +32.012939
1491873312.948955, 1491873312.951387, -0.331238, +1.082703, -0.576782, +25.192261, +15.655518, +34.423828
1491873312.951660, 1491873312.954080, -0.536682, +1.082703, -0.576782, +25.192261, +15.655518, +34.423828
1491873312.954354, 1491873312.956771, -0.536682, +1.082703, -0.576782, +20.553589, +10.665894, +36.987305
1491873312.957045, 1491873312.959467, -0.536682, +1.082703, -0.576782, +20.553589, +10.665894, +36.987305
1491873312.959739, 1491873312.962164, -0.357239, +1.254272, -0.215149, +15.808105, +4.898071, +38.864136
1491873312.962434, 1491873312.964860, -0.357239, +1.254272, -0.215149, +15.808105, +4.898071, +38.864136
1491873312.965130, 1491873312.967549, -0.357239, +1.254272, -0.215149, +11.474609, +2.548218, +39.871216
1491873312.967819, 1491873312.970293, -0.357239, +1.254272, -0.215149, +11.474609, +2.548218, +39.871216
1491873312.970556, 1491873312.972850, -0.169556, +1.038940, -0.022156, +7.431030, +2.975464, +40.679932
1491873312.973111, 1491873312.975408, -0.169556, +1.038940, -0.022156, +7.431030, +2.975464, +40.679932
1491873312.975668, 1491873312.977964, -0.169556, +1.038940, -0.022156, +2.273560, +7.049561, +40.100098
1491873312.978225, 1491873312.980530, -0.169556, +1.038940, -0.022156, +2.273560, +7.049561, +40.100098
1491873312.980790, 1491873312.983084, -0.179443, +0.977051, -0.181641, +0.259399, +12.145996, +38.955688
1491873312.983349, 1491873312.985644, -0.179443, +0.977051, -0.181641, +0.259399, +12.145996, +38.955688
1491873312.985907, 1491873312.988198, -0.179443, +0.977051, -0.181641, -1.785278, +13.931274, +38.085938
1491873312.988460, 1491873312.990808, -0.179443, +0.977051, -0.181641, -1.785278, +13.931274, +38.085938
1491873312.991082, 1491873312.993509, -0.281982, +1.214905, -0.211487, -5.111694, +11.032104, +37.780762
1491873312.993781, 1491873312.996206, -0.281982, +1.214905, -0.211487, -5.111694, +11.032104, +37.780762
1491873312.996477, 1491873312.998900, -0.281982, +1.214905, -0.211487, -8.468628, +7.110596, +37.796021
1491873312.999169, 1491873313.001603, -0.281982, +1.214905, +0.097046, -8.468628, +7.110596, +37.796021
1491873313.001873, 1491873313.004292, -0.251770, +1.204102, +0.097046, -10.940552, +8.193970, +38.467407
1491873313.004565, 1491873313.006983, -0.251770, +1.204102, +0.097046, -10.940552, +8.193970, +38.467407
1491873313.007255, 1491873313.009675, -0.251770, +1.204102, +0.097046, -11.718750, +11.367798, +38.391113
1491873313.009948, 1491873313.012385, -0.251770, +1.066040, +0.110779, -11.718750, +11.367798, +38.391113
1491873313.012659, 1491873313.015085, -0.227234, +1.066040, +0.110779, -11.779785, +14.129639, +38.116455
1491873313.015359, 1491873313.017787, -0.227234, +1.066040, +0.110779, -11.779785, +14.129639, +36.849976
1491873313.018061, 1491873313.020493, -0.227234, +1.066040, +0.110779, -10.650635, +16.891479, +36.849976
1491873313.020769, 1491873313.023189, -0.207275, +0.865723, -0.002747, -10.650635, +16.891479, +34.851074
1491873313.023463, 1491873313.025886, -0.207275, +0.865723, -0.002747, -8.956909, +19.897461, +34.851074
1491873313.026159, 1491873313.028581, -0.207275, +0.865723, -0.002747, -8.956909, +19.897461, +34.332275
1491873313.028854, 1491873313.031254, -0.207275, +0.865723, -0.002747, -7.278442, +19.744873, +34.332275
1491873313.031520, 1491873313.033813, -0.402649, +1.078674, +0.098511, -7.278442, +19.744873, +35.903931
1491873313.034078, 1491873313.036373, -0.402649, +1.078674, +0.098511, -6.637573, +14.602661, +35.903931
1491873313.036637, 1491873313.038933, -0.402649, +1.078674, +0.098511, -6.637573, +14.602661, +38.391113
1491873313.039199, 1491873313.041580, -0.402649, +1.078674, +0.098511, -5.844116, +10.131836, +38.391113
1491873313.041851, 1491873313.044278, -0.427185, +0.989685, +0.205261, -5.844116, +10.131836, +39.947510
1491873313.044549, 1491873313.046973, -0.427185, +0.989685, +0.205261, -3.601074, +6.301880, +39.947510
1491873313.047241, 1491873313.049662, -0.427185, +0.989685, +0.205261, -3.601074, +6.301880, +41.580200
1491873313.049930, 1491873313.052362, -0.427185, +0.989685, +0.243713, -0.839233, +3.921509, +41.580200
1491873313.052737, 1491873313.055164, -0.409607, +0.897400, +0.243713, -0.839233, +2.609253, +42.724609
1491873313.055433, 1491873313.057859, -0.409607, +0.897400, +0.243713, +3.494263, +2.609253, +42.724609
1491873313.058127, 1491873313.060561, -0.409607, +0.897400, +0.243713, +7.400513, +0.381470, +43.106079
1491873313.060832, 1491873313.063250, -0.268982, +0.995361, +0.286743, +7.522583, +0.381470, +43.106079
1491873313.063519, 1491873313.065945, -0.237122, +0.995361, +0.286743, +11.428833, +1.708984, +43.106079
1491873313.066216, 1491873313.068634, -0.237122, +0.995361, +0.286743, +11.642456, +1.708984, +43.106079
1491873313.068904, 1491873313.071334, -0.237122, +0.995361, +0.286743, +16.525269, +5.950928, +40.954590
1491873313.071604, 1491873313.074029, -0.188049, +1.084534, +0.272644, +16.525269, +5.950928, +40.954590
1491873313.074299, 1491873313.076717, -0.188049, +1.084534, +0.272644, +20.263672, +9.277344, +38.833618
1491873313.076988, 1491873313.079409, -0.188049, +1.084534, +0.272644, +20.263672, +9.277344, +38.833618
1491873313.079679, 1491873313.082035, -0.188049, +1.084534, +0.272644, +22.308350, +8.926392, +36.117554
1491873313.082298, 1491873313.084596, -0.123596, +1.101929, +0.164978, +22.308350, +8.926392, +36.117554
1491873313.084859, 1491873313.087153, -0.123596, +1.101929, +0.164978, +24.505615, +7.919312, +33.538818
1491873313.087416, 1491873313.089716, -0.123596, +1.101929, +0.164978, +24.505615, +7.919312, +33.538818
1491873313.089979, 1491873313.092284, -0.123596, +1.101929, +0.164978, +27.633667, +6.851196, +30.227661
1491873313.092548, 1491873313.094847, -0.019043, +1.093506, +0.030579, +27.633667, +6.851196, +30.227661
1491873313.095111, 1491873313.097408, -0.019043, +1.093506, +0.030579, +27.633667, +3.738403, +26.794434
1491873313.097670, 1491873313.099960, -0.019043, +1.093506, +0.030579, +29.373169, +3.738403, +26.794434
1491873313.100236, 1491873313.102657, -0.019043, +1.093506, +0.030579, +29.373169, -2.105713, +24.475098
1491873313.102928, 1491873313.105356, -0.036621, +1.210876, +0.008240, +30.075073, -2.105713, +24.475098
1491873313.105630, 1491873313.108050, -0.036621, +1.210876, +0.008240, +29.129028, -7.812500, +22.354126
1491873313.108321, 1491873313.110757, -0.036621, +1.210876, +0.008240, +29.129028, -7.812500, +22.354126
1491873313.111029, 1491873313.113452, -0.036621, +1.210876, +0.044495, +26.412964, -5.355835, +20.843506
1491873313.113722, 1491873313.116147, -0.243896, +1.187622, +0.044495, +26.412964, -5.355835, +20.843506
1491873313.116419, 1491873313.118840, -0.243896, +1.187622, +0.044495, +22.018433, +2.380371, +19.546509
1491873313.119113, 1491873313.121546, -0.243896, +1.187622, +0.044495, +22.018433, +2.380371, +19.546509
1491873313.121817, 1491873313.124243, -0.507935, +1.008362, +0.064636, +18.203735, -0.015259, +17.013550
1491873313.124516, 1491873313.126935, -0.507935, +1.008362, +0.064636, +18.203735, -0.015259, +17.013550
1491873313.127207, 1491873313.129629, -0.507935, +1.008362, +0.064636, +14.801025, -6.866455, +14.831543
1491873313.129901, 1491873313.132222, -0.507935, +1.008362, +0.064636, +14.801025, -6.866455, +14.831543
1491873313.132486, 1491873313.134783, -0.329590, +0.849243, +0.021240, +12.863159, -13.809204, +14.617920
1491873313.135049, 1491873313.137349, -0.329590, +0.849243, +0.021240, +12.863159, -13.809204, +14.617920
1491873313.137614, 1491873313.139912, -0.329590, +0.849243, +0.021240, +11.703491, -18.310547, +14.251709
1491873313.140187, 1491873313.142605, -0.329590, +0.849243, +0.021240, +11.703491, -18.310547, +14.251709
1491873313.142880, 1491873313.145304, -0.100159, +0.880188, -0.139709, +11.123657, -21.652222, +12.847900
1491873313.145579, 1491873313.148002, -0.100159, +0.880188, -0.139709, +11.123657, -21.652222, +12.847900
1491873313.148277, 1491873313.150705, -0.100159, +0.880188, -0.139709, +10.711670, -22.094727, +10.726929
1491873313.150980, 1491873313.153405, -0.100159, +0.880188, -0.139709, +10.711670, -22.094727, +10.726929
1491873313.153679, 1491873313.156102, +0.016479, +0.979248, -0.215881, +10.101318, -22.308350, +8.453369
1491873313.156479, 1491873313.158897, +0.016479, +0.979248, -0.215881, +10.101318, -22.308350, +8.453369
1491873313.159168, 1491873313.161605, +0.016479, +0.979248, -0.215881, +9.597778, -23.147583, +5.569458
1491873313.161875, 1491873313.164297, +0.016479, +1.072998, -0.224304, +9.597778, -23.147583, +5.569458
1491873313.164566, 1491873313.166992, +0.049988, +1.074097, -0.224304, +8.987427, -24.734497, +1.861572
1491873313.167260, 1491873313.169683, +0.049988, +1.074097, -0.224304, +8.987427, -24.734497, +1.861572
1491873313.169953, 1491873313.172275, +0.049988, +1.074097, -0.224304, +7.553101, -25.909424, -1.983643
1491873313.172537, 1491873313.174833, +0.049988, +1.220947, -0.180359, +7.553101, -25.909424, -1.983643
1491873313.175093, 1491873313.177391, +0.080566, +1.220947, -0.180359, +5.416870, -24.932861, -6.423950
1491873313.177651, 1491873313.179943, +0.080566, +1.220947, -0.180359, +5.416870, -24.932861, -6.423950
1491873313.180211, 1491873313.182631, +0.080566, +1.220947, -0.180359, +0.595093, -22.140503, -11.093140
1491873313.182905, 1491873313.185326, -0.007874, +1.259949, -0.143005, +0.595093, -22.140503, -11.093140
1491873313.185598, 1491873313.188022, -0.007874, +1.259949, -0.143005, -2.883911, -20.553589, -15.441895
1491873313.188293, 1491873313.190729, -0.007874, +1.259949, -0.143005, -2.883911, -20.553589, -15.441895
1491873313.191002, 1491873313.193428, -0.007874, +1.259949, -0.143005, -6.195068, -21.072388, -19.058228
1491873313.193701, 1491873313.196124, -0.007690, +1.190735, -0.115906, -6.195068, -21.072388, -19.058228
1491873313.196396, 1491873313.198820, -0.007690, +1.190735, -0.115906, -8.804321, -20.584106, -21.041870
1491873313.199092, 1491873313.201524, -0.007690, +1.190735, -0.115906, -8.804321, -20.584106, -21.041870
1491873313.201798, 1491873313.204223, -0.007690, +1.190735, -0.115906, -10.177612, -15.151978, -21.255493
1491873313.204500, 1491873313.206918, +0.149597, +1.171509, -0.157104, -10.177612, -15.151978, -21.255493
1491873313.207193, 1491873313.209618, +0.149597, +1.171509, -0.157104, -12.329102, -4.638672, -22.827148
1491873313.209890, 1491873313.212228, +0.149597, +1.171509, -0.157104, -12.329102, -4.638672, -26.733398
1491873313.212492, 1491873313.214790, +0.149597, +1.171509, -0.133301, -15.869141, +1.968384, -26.855469
1491873313.215053, 1491873313.217351, -0.023254, +1.110168, -0.133301, -15.869141, +1.968384, -26.855469
1491873313.217615, 1491873313.219910, -0.023254, +1.110168, -0.133301, -17.852783, +3.921509, -32.470703
1491873313.220172, 1491873313.222473, -0.023254, +1.110168, -0.133301, -17.852783, +3.921509, -32.470703
1491873313.222737, 1491873313.225033, -0.023254, +0.969543, -0.101624, -19.149780, +2.120972, -36.224365
1491873313.225299, 1491873313.227595, -0.274841, +0.976685, -0.101624, -19.149780, +2.120972, -36.224365
1491873313.227858, 1491873313.230179, -0.274841, +0.976685, -0.101624, -20.446777, -1.892090, -38.467407
1491873313.230449, 1491873313.232836, -0.274841, +0.976685, -0.101624, -20.446777, -1.892090, -38.467407
1491873313.233107, 1491873313.235489, -0.274841, +0.914612, +0.002747, -22.430420, -4.013062, -40.191650
1491873313.235759, 1491873313.238142, -0.288391, +0.914612, +0.002747, -22.430420, -4.013062, -40.191650
1491873313.238413, 1491873313.240826, -0.288391, +0.914612, +0.002747, -24.291992, -5.966187, -41.656494
1491873313.241098, 1491873313.243526, -0.288391, +0.914612, +0.002747, -24.291992, -5.966187, -41.656494
1491873313.243797, 1491873313.246218, -0.292053, +0.861694, +0.040283, -25.344849, -8.804321, -44.235229
1491873313.246489, 1491873313.248917, -0.292053, +0.861694, +0.040283, -25.344849, -8.804321, -44.235229
1491873313.249188, 1491873313.251618, -0.292053, +0.861694, +0.040283, -25.497437, -12.725830, -45.822144
1491873313.251894, 1491873313.254313, -0.292053, +0.861694, +0.040283, -25.497437, -12.725830, -49.728394
1491873313.254585, 1491873313.257009, -0.234741, +0.878540, +0.046143, -26.596069, -16.479492, -47.378540
1491873313.257281, 1491873313.259708, -0.234741, +0.878540, +0.046143, -26.596069, -16.479492, -47.378540
1491873313.260103, 1491873313.262527, -0.234741, +0.878540, +0.046143, -28.350830, -19.302368, -49.057007
1491873313.262803, 1491873313.265225, -0.234741, +0.878540, +0.093018, -28.350830, -19.302368, -51.284790
1491873313.265501, 1491873313.267921, -0.169556, +0.977417, +0.072327, -30.532837, -20.217896, -51.284790
1491873313.268194, 1491873313.270593, -0.169556, +0.977417, +0.072327, -30.532837, -20.217896, -52.749634
1491873313.270859, 1491873313.273160, -0.169556, +0.977417, +0.072327, -31.967163, -19.943237, -52.749634
1491873313.273426, 1491873313.275723, -0.169556, +0.977417, -0.013367, -31.967163, -19.943237, -54.840088
1491873313.275988, 1491873313.278283, -0.112244, +0.976318, -0.013367, -32.852173, -21.362305, -54.840088
1491873313.278550, 1491873313.280932, -0.112244, +0.976318, -0.013367, -32.852173, -21.362305, -55.847168
1491873313.281206, 1491873313.283632, -0.112244, +0.976318, -0.013367, -33.935547, -25.787354, -55.847168
1491873313.283905, 1491873313.286330, -0.112244, +0.897034, -0.053284, -33.935547, -29.693604, -55.343628
1491873313.286605, 1491873313.289032, +0.005676, +0.897034, -0.053284, -36.026001, -28.137207, -55.343628
1491873313.289307, 1491873313.291743, +0.005676, +0.897034, -0.053284, -36.026001, -24.230957, -56.320190
1491873313.292017, 1491873313.294440, +0.005676, +0.897034, -0.053284, -36.071777, -26.885986, -56.320190
1491873313.294715, 1491873313.297136, -0.181824, +0.598755, -0.120667, -36.071777, -24.276733, -58.105469
1491873313.297410, 1491873313.299828, -0.181824, +0.598755, -0.120667, -33.889771, -24.276733, -58.105469
1491873313.300113, 1491873313.302536, -0.181824, +0.598755, -0.120667, -29.983521, -22.735596, -58.425903
1491873313.302810, 1491873313.305233, -0.181824, +0.598755, -0.120667, -30.151367, -22.735596, -58.425903
1491873313.305509, 1491873313.307928, -0.602051, +0.585205, -0.136230, -25.329590, -23.818970, -58.776855
1491873313.308202, 1491873313.310631, -0.602051, +0.585205, -0.136230, -25.329590, -23.818970, -58.776855
1491873313.310905, 1491873313.313327, -0.602051, +0.585205, -0.136230, -21.514893, -28.930664, -58.944702
1491873313.313600, 1491873313.316018, -0.602051, +0.585205, +0.051270, -21.514893, -28.930664, -58.944702
1491873313.316294, 1491873313.318719, -0.781494, +0.966248, +0.068665, -21.560669, -34.622192, -57.785034
1491873313.318993, 1491873313.321346, -0.781494, +0.966248, +0.068665, -21.560669, -34.622192, -57.785034
1491873313.321612, 1491873313.323904, -0.781494, +0.966248, +0.068665, -23.742676, -43.060303, -56.793213
1491873313.324170, 1491873313.326463, -0.781494, +1.153748, +0.368591, -23.742676, -43.060303, -56.793213
1491873313.326728, 1491873313.329028, -0.436523, +1.155212, +0.368591, -28.457642, -51.345825, -57.006836
1491873313.329292, 1491873313.331720, -0.436523, +1.155212, +0.368591, -28.457642, -51.345825, -57.006836
1491873313.331995, 1491873313.334419, -0.436523, +1.155212, +0.368591, -32.348633, -51.574707, -57.418823
1491873313.334691, 1491873313.337118, -0.014648, +0.446045, +0.521667, -32.348633, -51.574707, -57.418823
1491873313.337394, 1491873313.339818, -0.030945, +0.446045, +0.521667, -31.646729, -45.410156, -57.678223
1491873313.340102, 1491873313.342527, -0.030945, +0.446045, +0.521667, -31.646729, -45.410156, -57.678223
1491873313.342802, 1491873313.345222, -0.030945, +0.446045, +0.521667, -26.168823, -30.944824, -58.288574
1491873313.345497, 1491873313.347919, -0.318604, -0.145569, +0.401184, -26.168823, -30.944824, -58.288574
1491873313.348191, 1491873313.350629, -0.318604, -0.145569, +0.401184, -20.065308, -14.892578, -59.906006
1491873313.350904, 1491873313.353324, -0.318604, -0.145569, +0.401184, -20.065308, -14.892578, -59.906006
1491873313.353598, 1491873313.356019, -0.318604, -0.145569, +0.401184, -18.508911, -7.247925, -62.454224
1491873313.356291, 1491873313.358712, -0.882385, -0.010803, +0.086426, -18.508911, -7.247925, -62.454224
1491873313.358986, 1491873313.361423, -0.882385, -0.010803, +0.086426, -19.607544, -7.659912, -64.117432
1491873313.361695, 1491873313.364113, -0.882385, -0.010803, +0.086426, -19.607544, -7.659912, -64.117432
1491873313.364494, 1491873313.366920, -0.882385, -0.010803, -0.388184, -13.626099, -10.406494, -63.308716
1491873313.367193, 1491873313.369618, -0.456116, -0.832214, -0.388184, -13.626099, -10.406494, -63.308716
1491873313.369891, 1491873313.372210, -0.456116, -0.832214, -0.388184, -3.555298, -6.332397, -60.256958
1491873313.372471, 1491873313.374771, -0.456116, -0.832214, -0.388184, -3.555298, -6.332397, -60.256958
1491873313.375031, 1491873313.377329, -0.456116, +1.661682, +0.091003, -11.138916, -3.204346, -63.430786
1491873313.377593, 1491873313.379896, -0.787537, +1.661682, +0.091003, -11.138916, -3.204346, -63.430786
1491873313.380166, 1491873313.382587, -0.787537, +1.661682, +0.091003, -38.131714, +3.799438, -63.369751
1491873313.382858, 1491873313.385279, -0.787537, +1.661682, +0.091003, -38.131714, +3.799438, -63.369751
1491873313.385550, 1491873313.387971, +0.149963, +5.403076, +0.758789, -51.132202, -13.504028, -51.361084
1491873313.388248, 1491873313.390718, +0.156921, +5.403076, +0.758789, -51.132202, -13.504028, -51.361084
1491873313.390992, 1491873313.393416, +0.156921, +5.403076, +0.758789, -39.611816, -15.380859, -45.989990
1491873313.393689, 1491873313.396110, +0.156921, +5.403076, +0.758789, -39.611816, -15.380859, -45.989990
1491873313.396384, 1491873313.398805, +0.270447, +1.418518, -0.334534, -38.299561, +9.963989, -61.065674
1491873313.399076, 1491873313.401510, +0.270447, +1.418518, -0.334534, -38.299561, +9.963989, -61.065674
1491873313.401783, 1491873313.404208, +0.270447, +1.418518, -0.334534, -34.469604, +15.869141, -62.744141
1491873313.404482, 1491873313.406906, +0.270447, +1.418518, -0.334534, -34.469604, +15.869141, -51.025391
1491873313.407179, 1491873313.409604, -1.319641, +0.820862, -0.164062, -35.614014, -3.311157, -51.696777
1491873313.409876, 1491873313.412194, -1.319641, +0.820862, -0.164062, -35.614014, -3.311157, -39.978027
1491873313.412460, 1491873313.414755, -1.319641, +0.820862, -0.164062, -34.454346, -28.778076, -42.846680
1491873313.415020, 1491873313.417315, -1.319641, +0.820862, +0.164062, -34.454346, -28.778076, -38.940430
1491873313.417580, 1491873313.419879, -0.468018, +0.668884, +0.159302, -34.561157, -30.426025, -37.612915
1491873313.420153, 1491873313.422576, -0.468018, +0.668884, +0.159302, -34.561157, -30.426025, -37.612915
1491873313.422851, 1491873313.425270, -0.468018, +0.668884, +0.159302, -37.536621, -20.156860, -36.148071
1491873313.425544, 1491873313.427965, -0.468018, +0.622009, +0.205261, -37.536621, -20.156860, -32.241821
1491873313.428238, 1491873313.430706, -0.593994, +0.640320, +0.205261, -35.797119, -20.004272, -34.637451
1491873313.430980, 1491873313.433398, -0.593994, +0.640320, +0.205261, -35.797119, -20.004272, -30.883789
1491873313.433673, 1491873313.436097, -0.593994, +0.640320, +0.205261, -33.447266, -22.308350, -30.883789
1491873313.436372, 1491873313.438794, -0.558472, +1.114014, +0.381958, -33.447266, -22.308350, -26.138306
1491873313.439068, 1491873313.441503, -0.558472, +1.114014, +0.381958, -32.928467, -23.773193, -26.138306
1491873313.441775, 1491873313.444200, -0.558472, +1.114014, +0.381958, -32.928467, -23.773193, -21.041870
1491873313.444473, 1491873313.446890, -0.558472, +1.114014, +0.381958, -32.897949, -24.597168, -21.041870
1491873313.447163, 1491873313.449584, -0.468750, +1.017517, +0.176697, -32.897949, -24.963379, -16.494751
1491873313.449857, 1491873313.452207, -0.468750, +1.017517, +0.176697, -33.920288, -24.963379, -16.494751
1491873313.452474, 1491873313.454774, -0.468750, +1.017517, +0.176697, -33.920288, -21.057129, -14.495850
1491873313.455041, 1491873313.457342, -0.468750, +1.017517, +0.176697, -35.308838, -23.208618, -14.495850
1491873313.457607, 1491873313.459909, -0.580444, +0.819763, +0.119934, -35.308838, -23.208618, -12.817383
1491873313.460178, 1491873313.462601, -0.580444, +0.819763, +0.119934, -35.095215, -20.507812, -12.817383
1491873313.462876, 1491873313.465298, -0.580444, +0.819763, +0.119934, -35.095215, -20.507812, -9.689331
1491873313.465572, 1491873313.467994, -0.580444, +0.819763, +0.354309, -33.996582, -19.958496, -9.689331
1491873313.468371, 1491873313.470809, -0.640869, +0.903442, +0.330505, -33.996582, -19.668579, -6.439209
1491873313.471081, 1491873313.473503, -0.640869, +0.903442, +0.330505, -32.089233, -19.668579, -6.439209
1491873313.473773, 1491873313.476193, -0.640869, +0.903442, +0.330505, -28.182983, -17.776489, -2.975464
1491873313.476464, 1491873313.478886, -0.640869, +0.872498, +0.365662, -30.380249, -17.776489, -2.975464
1491873313.479157, 1491873313.481521, -0.471497, +0.872498, +0.365662, -28.396606, -13.961792, +1.205444
1491873313.481785, 1491873313.484078, -0.471497, +0.872498, +0.365662, -28.396606, -13.961792, +1.205444
1491873313.484342, 1491873313.486637, -0.471497, +0.872498, +0.365662, -24.490356, -7.492065, +4.547119
1491873313.486896, 1491873313.489189, -0.518372, +0.660461, +0.264954, -25.909424, -7.492065, +4.547119
1491873313.489449, 1491873313.491816, -0.541077, +0.660461, +0.264954, -22.003174, -4.913330, +7.186890
1491873313.492077, 1491873313.494374, -0.541077, +0.660461, +0.264954, -22.918701, -4.913330, +7.186890
1491873313.494635, 1491873313.496931, -0.541077, +0.660461, +0.264954, -22.918701, -6.515503, +10.574341
1491873313.497197, 1491873313.499493, -0.653687, +0.810608, +0.382507, -18.707275, -6.515503, +10.574341
1491873313.499758, 1491873313.502060, -0.653687, +0.810608, +0.382507, -18.707275, -6.515503, +14.663696
1491873313.502324, 1491873313.504617, -0.653687, +0.810608, +0.382507, -15.243530, -7.720947, +14.663696
1491873313.504880, 1491873313.507176, -0.653687, +0.810608, +0.382507, -15.243530, -7.720947, +18.371582
1491873313.507440, 1491873313.509736, -0.526062, +0.921753, +0.517456, -11.138916, -7.110596, +18.371582
1491873313.510001, 1491873313.512424, -0.526062, +0.921753, +0.517456, -11.138916, -7.110596, +21.377563
1491873313.512696, 1491873313.515115, -0.526062, +0.921753, +0.517456, -7.354736, -6.500244, +21.377563
1491873313.515382, 1491873313.517806, -0.526062, +0.921753, +0.517456, -7.354736, -6.500244, +23.651123
1491873313.518073, 1491873313.520508, -0.501892, +0.838440, +0.430664, -3.555298, -4.745483, +23.651123
1491873313.520779, 1491873313.523203, -0.501892, +0.838440, +0.430664, -3.555298, -4.745483, +25.192261
1491873313.523472, 1491873313.525896, -0.501892, +0.838440, +0.430664, +0.427246, -5.096436, +25.192261
1491873313.526165, 1491873313.528589, -0.501892, +0.838440, +0.430664, +0.427246, -6.729126, +27.938843
1491873313.528857, 1491873313.531291, -0.518005, +0.888794, +0.430115, +2.944946, -6.729126, +27.938843
1491873313.531559, 1491873313.533982, -0.518005, +0.888794, +0.430115, +6.851196, -6.942749, +30.517578
1491873313.534251, 1491873313.536674, -0.518005, +0.888794, +0.430115, +5.661011, -6.942749, +30.517578
1491873313.536945, 1491873313.539364, -0.518005, +0.888794, +0.470764, +9.017944, -5.111694, +33.126831
1491873313.539633, 1491873313.542098, -0.506287, +0.865173, +0.470764, +9.017944, -5.111694, +33.126831
1491873313.542366, 1491873313.544780, -0.506287, +0.865173, +0.470764, +11.764526, -4.409790, +34.790039
1491873313.545051, 1491873313.547473, -0.506287, +0.865173, +0.470764, +11.764526, -4.409790, +34.790039
1491873313.547743, 1491873313.550184, -0.506287, +0.998291, +0.532288, +13.900757, -7.629395, +36.163330
1491873313.550450, 1491873313.552743, -0.480652, +0.998291, +0.532288, +13.900757, -7.629395, +36.163330
1491873313.553010, 1491873313.555309, -0.480652, +0.998291, +0.532288, +15.289307, -10.253906, +37.734985
1491873313.555575, 1491873313.557876, -0.480652, +0.998291, +0.532288, +15.289307, -10.253906, +37.734985
1491873313.558143, 1491873313.560505, -0.327393, +1.105408, +0.391113, +17.990112, -10.437012, +38.009644
1491873313.560780, 1491873313.563200, -0.327393, +1.105408, +0.391113, +17.990112, -10.437012, +38.009644
1491873313.563473, 1491873313.565894, -0.327393, +1.105408, +0.391113, +19.958496, -14.877319, +36.178589
1491873313.566166, 1491873313.568592, -0.327393, +1.105408, +0.391113, +19.958496, -14.877319, +36.178589
1491873313.568864, 1491873313.571295, -0.353394, +1.437561, +0.223938, +20.080566, -23.315430, +33.981323
1491873313.571678, 1491873313.574103, -0.353394, +1.437561, +0.223938, +20.080566, -23.315430, +33.981323
1491873313.574378, 1491873313.576800, -0.353394, +1.437561, +0.223938, +22.125244, -26.306152, +31.570435
1491873313.577073, 1491873313.579495, -0.353394, +1.437561, +0.223938, +22.125244, -26.306152, +31.570435
1491873313.579769, 1491873313.582202, -0.135681, +1.456970, +0.139160, +27.267456, -24.322510, +27.786255
1491873313.582477, 1491873313.584904, -0.135681, +1.456970, +0.139160, +27.267456, -24.322510, +27.786255
1491873313.585179, 1491873313.587605, -0.135681, +1.456970, +0.139160, +31.768799, -21.224976, +23.864746
1491873313.587878, 1491873313.590339, -0.135681, +1.597595, +0.407959, +31.768799, -21.224976, +23.864746
1491873313.590613, 1491873313.593032, -0.262573, +1.619751, +0.407959, +34.042358, -16.204834, +22.018433
1491873313.593305, 1491873313.595726, -0.262573, +1.619751, +0.407959, +34.042358, -16.204834, +22.018433
1491873313.596000, 1491873313.598425, -0.262573, +1.619751, +0.407959, +35.202026, -15.396118, +21.835327
1491873313.598700, 1491873313.601087, -0.181091, +1.670288, +0.587036, +35.202026, -15.396118, +21.835327
1491873313.601353, 1491873313.603647, -0.181091, +1.670288, +0.587036, +37.445068, -14.694214, +21.560669
1491873313.603912, 1491873313.606211, -0.181091, +1.670288, +0.587036, +37.445068, -14.694214, +21.560669
1491873313.606476, 1491873313.608773, -0.181091, +1.670288, +0.587036, +39.596558, -10.314941, +21.347046
1491873313.609039, 1491873313.611341, -0.204346, +1.583679, +0.475159, +39.596558, -10.314941, +21.347046
1491873313.611607, 1491873313.613900, -0.204346, +1.583679, +0.475159, +42.022705, -5.081177, +22.125244
1491873313.614164, 1491873313.616463, -0.204346, +1.583679, +0.475159, +42.022705, -5.081177, +22.125244
1491873313.616726, 1491873313.619016, -0.204346, +1.583679, +0.475159, +43.991089, -0.152588, +22.735596
1491873313.619280, 1491873313.621715, -0.301025, +1.450195, +0.362000, +43.991089, -0.152588, +22.735596
1491873313.621987, 1491873313.624410, -0.301025, +1.450195, +0.362000, +46.493530, +2.471924, +23.391724
1491873313.624680, 1491873313.627103, -0.301025, +1.450195, +0.362000, +46.493530, +2.471924, +23.391724
1491873313.627375, 1491873313.629800, -0.301025, +1.450195, +0.362000, +50.445557, +1.983643, +26.611328
1491873313.630082, 1491873313.632508, -0.345337, +1.220764, +0.276855, +50.445557, +1.983643, +26.611328
1491873313.632779, 1491873313.635201, -0.345337, +1.220764, +0.276855, +55.145264, +0.823975, +31.265259
1491873313.635471, 1491873313.637891, -0.345337, +1.220764, +0.276855, +55.145264, +0.823975, +31.265259
1491873313.638162, 1491873313.640594, -0.345337, +1.220764, +0.272644, +60.852051, +0.122070, +36.834717
1491873313.640868, 1491873313.643289, -0.428467, +1.064026, +0.272644, +60.852051, +0.122070, +36.834717
1491873313.643561, 1491873313.645986, -0.428467, +1.064026, +0.272644, +66.604614, +0.106812, +42.373657
1491873313.646258, 1491873313.648682, -0.428467, +1.064026, +0.272644, +66.604614, +0.106812, +42.373657
1491873313.648954, 1491873313.651324, -0.428467, +1.026489, +0.293518, +73.104858, -2.349854, +50.842285
1491873313.651588, 1491873313.653881, -0.418945, +1.026489, +0.293518, +73.104858, -2.349854, +50.842285
1491873313.654145, 1491873313.656445, -0.418945, +1.026489, +0.293518, +78.796387, -7.736206, +58.303833
1491873313.656706, 1491873313.658999, -0.418945, +1.026489, +0.293518, +78.796387, -7.736206, +58.303833
1491873313.659262, 1491873313.661702, -0.465820, +1.222229, +0.381409, +85.418701, -15.014648, +68.908691
1491873313.661979, 1491873313.664399, -0.466003, +1.222229, +0.381409, +85.418701, -15.014648, +68.908691
1491873313.664673, 1491873313.667094, -0.466003, +1.222229, +0.381409, +90.881348, -23.391724, +81.283569
1491873313.667368, 1491873313.669793, -0.466003, +1.222229, +0.381409, +90.881348, -23.391724, +93.002319
1491873313.670077, 1491873313.672497, -0.264404, +1.582947, +0.549133, +94.375610, -33.782959, +91.400146
1491873313.672770, 1491873313.675190, -0.264404, +1.582947, +0.549133, +94.375610, -33.782959, +107.025146
1491873313.675570, 1491873313.677993, -0.264404, +1.582947, +0.549133, +96.847534, -46.142578, +109.268188
1491873313.678268, 1491873313.680702, -0.264404, +1.582947, +0.549133, +96.847534, -46.142578, +128.265381
1491873313.680975, 1491873313.683397, +0.049988, +2.156799, +0.981262, +96.221924, -58.517456, +128.265381
1491873313.683671, 1491873313.686094, +0.049988, +2.156799, +0.981262, +96.221924, -74.142456, +153.350830
1491873313.686368, 1491873313.688786, +0.049988, +2.156799, +0.981262, +94.696045, -71.823120, +153.350830
1491873313.689062, 1491873313.691492, +0.049988, +2.156799, +1.680359, +94.696045, -83.541870, +179.107666
1491873313.691766, 1491873313.694187, +0.817932, +3.079285, +1.680359, +88.867188, -82.153320, +179.107666
1491873313.694461, 1491873313.696878, +0.817932, +3.079285, +1.680359, +88.867188, -83.755493, +206.008911
1491873313.697152, 1491873313.699577, +0.817932, +3.079285, +1.680359, +85.311890, -83.755493, +206.008911
1491873313.699850, 1491873313.702194, +2.130432, +4.292908, +1.734924, +81.405640, -80.947876, +240.676880
1491873313.702459, 1491873313.704754, +2.123474, +4.292908, +1.734924, +78.125000, -80.947876, +240.676880
1491873313.705018, 1491873313.707321, +2.123474, +4.292908, +1.734924, +78.125000, -52.154541, +275.527954
1491873313.707585, 1491873313.709885, +2.123474, +4.292908, +1.734924, +62.088013, -52.154541, +275.527954
1491873313.710155, 1491873313.712584, +2.727905, +5.301819, +0.639587, +62.088013, +72.463989, +280.029297
1491873313.712858, 1491873313.715281, +2.727905, +5.301819, +0.639587, +39.245605, +72.463989, +280.029297
1491873313.715556, 1491873313.717983, +2.727905, +5.301819, +0.639587, +39.245605, +234.115601, +208.572388
1491873313.718255, 1491873313.720688, +2.727905, +5.301819, +0.639587, +42.358398, +234.115601, +208.572388
1491873313.720961, 1491873313.723389, +0.121033, +5.988831, -1.756714, +3.295898, +247.772217, +141.510010
1491873313.723660, 1491873313.726080, +0.121033, +5.988831, -1.756714, +2.243042, +247.772217, +141.510010
1491873313.726353, 1491873313.728779, +0.121033, +5.988831, -1.756714, -82.931519, +121.566772, +186.981201
1491873313.729055, 1491873313.731415, +0.121033, +5.988831, -1.756714, -82.931519, +121.566772, +186.981201
1491873313.731682, 1491873313.733980, -5.440613, +3.443115, -1.742615, -87.112427, +39.932251, +261.062622
1491873313.734244, 1491873313.736540, -5.440613, +3.443115, -1.742615, -87.112427, +39.932251, +261.062622
1491873313.736802, 1491873313.739103, -5.440613, +3.443115, -1.742615, -67.581177, -41.183472, +250.656128
1491873313.739367, 1491873313.741836, -5.440613, +3.443115, -0.055115, -66.833496, -41.183472, +250.656128
1491873313.742103, 1491873313.744400, -3.578979, +2.894165, -0.074524, -59.020996, -101.684570, +192.794800
1491873313.744668, 1491873313.746967, -3.578979, +2.894165, -0.074524, -61.584473, -101.684570, +192.794800
1491873313.747233, 1491873313.749529, -3.578979, +2.894165, -0.074524, -49.865723, -155.578613, +172.241211
1491873313.749794, 1491873313.752204, -3.578979, +2.894165, -1.677429, -48.614502, -155.578613, +172.241211
1491873313.752477, 1491873313.754899, -1.323486, +1.711853, -1.677429, -40.802002, -135.314941, +118.652344
1491873313.755170, 1491873313.757592, -1.323486, +1.711853, -1.677429, -39.077759, -135.314941, +118.652344
1491873313.757861, 1491873313.760291, -1.323486, +1.711853, -1.677429, -6.881714, -63.232422, +32.089233
1491873313.760558, 1491873313.762978, -1.464111, -0.528809, -1.812744, -6.881714, -63.232422, +32.089233
1491873313.763248, 1491873313.765663, -1.496704, -0.528809, -1.812744, +0.473022, -28.121948, -42.770386
1491873313.765936, 1491873313.768357, -1.496704, -0.528809, -1.812744, +0.473022, -28.121948, -42.770386
1491873313.768627, 1491873313.771089, -1.496704, -0.528809, -1.812744, +10.070801, -0.122070, -91.964722
1491873313.771361, 1491873313.773778, -0.897034, +0.968262, -1.447449, +10.070801, -0.122070, -91.964722
1491873313.774050, 1491873313.776466, -0.897034, +0.968262, -1.447449, +14.617920, +16.830444, -124.526978
1491873313.776847, 1491873313.779267, -0.897034, +0.968262, -1.447449, +14.617920, +16.830444, -124.526978
1491873313.779543, 1491873313.781973, -0.897034, +0.968262, -1.447449, +27.542114, +23.864746, -151.229858
1491873313.782246, 1491873313.784664, -0.522400, +1.327332, -0.964600, +27.542114, +23.864746, -151.229858
1491873313.784937, 1491873313.787362, -0.522400, +1.327332, -0.964600, +32.989502, +15.045166, -168.334961
1491873313.787637, 1491873313.790094, -0.522400, +1.327332, -0.964600, +32.989502, +15.045166, -168.334961
1491873313.790361, 1491873313.792655, -0.522400, +1.327332, -0.652588, +29.449463, -8.468628, -177.490234
1491873313.792919, 1491873313.795214, -0.497864, +1.678162, -0.652588, +29.449463, -8.468628, -177.490234
1491873313.795476, 1491873313.797772, -0.497864, +1.678162, -0.652588, +23.498535, -36.895752, -181.991577
1491873313.798038, 1491873313.800358, -0.497864, +1.678162, -0.652588, +23.498535, -36.895752, -181.991577
1491873313.800633, 1491873313.803049, -0.497864, +2.053162, +0.116089, +10.253906, -76.843262, -179.229736
1491873313.803323, 1491873313.805742, +0.350098, +2.038696, +0.116089, +10.253906, -76.843262, -179.229736
1491873313.806017, 1491873313.808432, +0.350098, +2.038696, +0.116089, -7.415771, -95.077515, -163.528442
1491873313.808705, 1491873313.811140, +0.350098, +2.038696, +0.116089, -7.415771, -95.077515, -163.528442
1491873313.811412, 1491873313.813835, +0.599487, +2.002441, -0.430847, -5.523682, -91.125488, -163.162231
1491873313.814106, 1491873313.816531, +0.599487, +2.002441, -0.430847, -5.523682, -91.125488, -163.162231
1491873313.816804, 1491873313.819228, +0.599487, +2.002441, -0.430847, -0.640869, -102.279663, -175.186157
1491873313.819499, 1491873313.821933, +0.599487, +2.002441, -0.430847, -0.640869, -102.279663, -175.186157
1491873313.822203, 1491873313.824622, +0.209656, +1.950623, -0.545654, -5.661011, -111.053467, -177.856445
1491873313.824893, 1491873313.827316, +0.209656, +1.950623, -0.545654, -5.661011, -111.053467, -177.856445
1491873313.827588, 1491873313.830005, +0.209656, +1.950623, -0.545654, -8.773804, -105.621338, -174.118042
1491873313.830328, 1491873313.832752, +0.209656, +1.950623, -0.545654, -8.773804, -105.621338, -174.118042
1491873313.833024, 1491873313.835442, +0.962952, +2.158630, -0.224304, -6.790161, -89.324951, -164.352417
1491873313.835714, 1491873313.838133, +0.962952, +2.158630, -0.224304, -6.790161, -89.324951, -156.539917
1491873313.838404, 1491873313.840831, +0.962952, +2.158630, -0.224304, +2.136230, -67.749023, -156.387329
1491873313.841095, 1491873313.843394, +0.962952, +2.158630, -0.202698, +2.136230, -67.749023, -148.574829
1491873313.843656, 1491873313.845953, +1.263794, +2.095459, -0.202698, +9.536743, -46.478271, -150.085449
1491873313.846215, 1491873313.848511, +1.263794, +2.095459, -0.202698, +9.536743, -46.478271, -150.085449
1491873313.848773, 1491873313.851148, +1.263794, +2.095459, -0.202698, +10.757446, -21.072388, -143.676758
1491873313.851422, 1491873313.853841, +1.263794, +1.767334, +0.025085, +10.757446, -21.072388, -143.676758
1491873313.854116, 1491873313.856536, +1.065674, +1.765320, +0.025085, +6.774902, +16.098022, -131.057739
1491873313.856807, 1491873313.859225, +1.065674, +1.765320, +0.025085, +6.774902, +16.098022, -123.245239
1491873313.859496, 1491873313.861915, +1.065674, +1.765320, +0.025085, +6.500244, +56.213379, -122.406006
1491873313.862184, 1491873313.864609, +0.805847, +1.514465, +0.115723, +6.500244, +56.213379, -117.263794
1491873313.864879, 1491873313.867302, +0.805847, +1.514465, +0.115723, +9.399414, +87.844849, -117.263794
1491873313.867577, 1491873313.869999, +0.805847, +1.514465, +0.115723, +9.399414, +87.844849, -109.664917
1491873313.870337, 1491873313.872758, +0.805847, +1.514465, +0.115723, +12.954712, +113.784790, -109.664917
1491873313.873033, 1491873313.875456, +0.375366, +1.517029, +0.058777, +12.954712, +141.128540, -101.486206
1491873313.875730, 1491873313.878150, +0.375366, +1.517029, +0.058777, +15.609741, +141.052246, -101.486206
1491873313.878526, 1491873313.880961, +0.375366, +1.517029, +0.058777, +15.609741, +169.250488, -93.658447
1491873313.881236, 1491873313.883664, +0.375366, +1.517029, +0.058777, +15.777588, +169.250488, -93.658447
1491873313.883937, 1491873313.886361, -0.401550, +1.397827, +0.046692, +11.871338, +190.963745, -89.111328
1491873313.886637, 1491873313.889055, -0.401550, +1.397827, +0.046692, +14.190674, +190.963745, -89.111328
1491873313.889330, 1491873313.891685, -0.401550, +1.397827, +0.046692, +14.190674, +209.869385, -88.516235
1491873313.891953, 1491873313.894247, -0.401550, +1.069702, +0.202698, +14.465332, +209.869385, -88.516235
1491873313.894513, 1491873313.896810, -1.024292, +1.060547, +0.202698, +18.371582, +226.806641, -86.853027
1491873313.897077, 1491873313.899370, -1.024292, +1.060547, +0.202698, +18.829346, +226.806641, -86.853027
1491873313.899635, 1491873313.902039, -1.024292, +1.060547, +0.202698, +18.829346, +238.708496, -84.930420
1491873313.902314, 1491873313.904738, -1.024292, +0.925232, +0.354675, +25.543213, +238.708496, -84.930420
1491873313.905011, 1491873313.907433, -1.275696, +0.925232, +0.354675, +29.449463, +242.507935, -86.502075
1491873313.907706, 1491873313.910136, -1.275696, +0.925232, +0.354675, +30.548096, +242.507935, -86.502075
1491873313.910411, 1491873313.912828, -1.275696, +0.925232, +0.354675, +31.356812, +237.167358, -88.134766
1491873313.913102, 1491873313.915522, -1.587524, +0.878723, +0.506104, +31.356812, +237.167358, -88.134766
1491873313.915797, 1491873313.918218, -1.587524, +0.878723, +0.506104, +27.099609, +227.676392, -90.942383
1491873313.918492, 1491873313.920921, -1.587524, +0.878723, +0.506104, +27.099609, +227.676392, -90.942383
1491873313.921194, 1491873313.923620, -1.587524, +0.878723, +0.506104, +22.476196, +215.469360, -94.390869
1491873313.923894, 1491873313.926315, -1.734924, +0.653137, +0.630249, +22.476196, +215.469360, -94.390869
1491873313.926589, 1491873313.929012, -1.734924, +0.653137, +0.630249, +20.278931, +200.119019, -97.167969
1491873313.929285, 1491873313.931718, -1.734924, +0.653137, +0.630249, +20.278931, +200.119019, -97.167969
1491873313.931992, 1491873313.934411, -1.734924, +0.653137, +0.630249, +16.281128, +180.130005, -97.305298
1491873313.934685, 1491873313.937104, -1.447998, +0.407776, +0.645630, +16.281128, +180.130005, -97.305298
1491873313.937377, 1491873313.939796, -1.447998, +0.407776, +0.645630, +11.993408, +159.561157, -96.572876
1491873313.940080, 1491873313.942376, -1.447998, +0.407776, +0.645630, +11.993408, +159.561157, -96.572876
1491873313.942643, 1491873313.944940, -1.447998, -0.014099, +0.428833, +9.216309, +140.823364, -95.230103
1491873313.945206, 1491873313.947504, -1.023010, -0.012268, +0.428833, +9.216309, +140.823364, -95.230103
1491873313.947770, 1491873313.950111, -1.023010, -0.012268, +0.428833, +4.516602, +114.837646, -92.651367
1491873313.950383, 1491873313.952797, -1.023010, -0.012268, +0.428833, +4.516602, +114.837646, -92.651367
1491873313.953068, 1491873313.955489, -1.023010, -0.732422, +0.359619, -2.883911, +85.525513, -89.874268
1491873313.955760, 1491873313.958180, -0.571289, -0.732422, +0.359619, -2.883911, +85.525513, -89.874268
1491873313.958453, 1491873313.960890, -0.571289, -0.732422, +0.359619, -12.176514, +56.518555, -82.412720
1491873313.961164, 1491873313.963584, -0.571289, -0.732422, +0.359619, -12.176514, +56.518555, -82.412720
1491873313.963858, 1491873313.966277, +0.112061, -2.046936, +0.373535, -24.642944, +29.754639, -66.513062
1491873313.966553, 1491873313.968976, +0.112061, -2.046936, +0.373535, -24.642944, +29.754639, -66.513062
1491873313.969249, 1491873313.971718, +0.112061, -2.046936, +0.373535, -36.621094, +7.492065, -45.455933
1491873313.971991, 1491873313.974409, +0.112061, -2.046936, +0.373535, -36.621094, +7.492065, -45.455933
1491873313.974682, 1491873313.977102, +1.005981, -3.587219, +0.362915, -34.545898, -12.420654, -32.028198
1491873313.977374, 1491873313.979792, +1.005981, -3.587219, +0.362915, -34.545898, -12.420654, -32.028198
1491873313.980075, 1491873313.982496, +1.005981, -3.587219, +0.362915, -18.218994, -28.823853, -25.451660
1491873313.982879, 1491873313.985300, +1.005981, -3.587219, +0.518372, -18.218994, -28.823853, -25.451660
1491873313.985572, 1491873313.987993, +1.567383, -4.224609, +0.518372, -10.925293, -38.146973, -13.916016
1491873313.988266, 1491873313.990666, +1.567383, -4.224609, +0.518372, -10.925293, -38.146973, -6.103516
1491873313.990929, 1491873313.993223, +1.567383, -4.224609, +0.518372, -15.716553, -49.240112, -4.669189
1491873313.993485, 1491873313.995788, +1.567383, -3.755859, +0.649292, -15.716553, -49.240112, -4.669189
1491873313.996049, 1491873313.998345, +1.489563, -3.762817, +0.649292, -30.197144, -69.534302, +1.739502
1491873313.998608, 1491873314.000911, +1.489563, -3.762817, +0.649292, -30.197144, -69.534302, +1.739502
1491873314.001176, 1491873314.003473, +1.489563, -3.762817, +0.649292, -45.913696, -98.785400, +8.331299
1491873314.003737, 1491873314.006029, +1.489563, -4.023926, +0.759338, -45.913696, -98.785400, +8.331299
1491873314.006294, 1491873314.008589, +1.798279, -4.023926, +0.759338, -52.429199, -116.485596, +13.793945
1491873314.008854, 1491873314.011234, +1.798279, -4.023926, +0.759338, -52.429199, -116.485596, +13.793945
1491873314.011507, 1491873314.013927, +1.798279, -4.023926, +0.759338, -55.908203, -106.033325, +16.235352
1491873314.014201, 1491873314.016713, +2.735779, -4.224792, +0.458862, -55.908203, -106.033325, +16.235352
1491873314.016985, 1491873314.019404, +2.720947, -4.224792, +0.458862, -57.785034, -69.671631, +16.510010
1491873314.019677, 1491873314.022111, +2.720947, -4.224792, +0.458862, -57.785034, -69.671631, +16.510010
1491873314.022384, 1491873314.024801, +2.720947, -4.224792, +0.458862, -53.787231, -32.363892, +17.822266
1491873314.025075, 1491873314.027495, +2.751709, -4.550903, +0.154724, -53.787231, -32.363892, +17.822266
1491873314.027768, 1491873314.030200, +2.751709, -4.550903, +0.154724, -47.271729, -3.768921, +17.852783
1491873314.030469, 1491873314.032889, +2.751709, -4.550903, +0.154724, -47.271729, -3.768921, +17.852783
1491873314.033158, 1491873314.035585, +2.751709, -4.550903, +0.154724, -40.069580, +16.448975, +17.791748
1491873314.035860, 1491873314.038282, +2.080261, -4.452393, -0.008423, -40.069580, +16.448975, +19.775391
1491873314.038556, 1491873314.040985, +2.080261, -4.452393, -0.008423, -35.430908, +25.924683, +19.775391
1491873314.041259, 1491873314.043681, +2.080261, -4.452393, -0.008423, -35.430908, +25.924683, +22.033691
1491873314.043953, 1491873314.046376, +2.080261, -4.452393, +0.093384, -35.369873, +26.672363, +22.033691
1491873314.046648, 1491873314.049070, +1.661316, -3.800903, +0.093384, -35.369873, +26.672363, +23.605347
1491873314.049343, 1491873314.051691, +1.661316, -3.800903, +0.093384, -36.148071, +24.871826, +23.605347
1491873314.051957, 1491873314.054251, +1.661316, -3.800903, +0.093384, -36.148071, +24.871826, +23.422241
1491873314.054516, 1491873314.056810, +1.661316, -3.091919, +0.218262, -35.812378, +24.765015, +23.422241
1491873314.057075, 1491873314.059372, +1.461548, -3.091919, +0.218262, -35.812378, +24.765015, +23.864746
1491873314.059636, 1491873314.062039, +1.461548, -3.091919, +0.218262, -36.880493, +26.000977, +23.864746
1491873314.062312, 1491873314.064736, +1.461548, -3.091919, +0.218262, -36.880493, +26.000977, +25.787354
1491873314.065008, 1491873314.067432, +1.236328, -2.490051, +0.281616, -41.091919, +27.099609, +25.787354
1491873314.067704, 1491873314.070136, +1.236328, -2.490051, +0.281616, -41.091919, +31.005859, +29.174805
1491873314.070408, 1491873314.072825, +1.236328, -2.490051, +0.281616, -43.167114, +28.259277, +29.174805
1491873314.073099, 1491873314.075523, +1.236328, -2.490051, +0.281616, -43.167114, +29.006958, +35.308838
1491873314.075796, 1491873314.078218, +0.623840, -2.202942, +0.161865, -43.731689, +29.006958, +35.308838
1491873314.078490, 1491873314.080920, +0.623840, -2.202942, +0.161865, -43.731689, +28.335571, +43.563843
1491873314.081192, 1491873314.083613, +0.623840, -2.202942, +0.161865, -43.807983, +28.335571, +43.563843
1491873314.083886, 1491873314.086310, +0.623840, -2.202942, +0.161865, -39.901733, +25.787354, +53.756714
1491873314.086693, 1491873314.089115, +0.041931, -1.936890, +0.061707, -41.641235, +25.787354, +53.756714
1491873314.089389, 1491873314.091820, +0.041931, -1.936890, +0.061707, -36.819458, +18.844604, +61.737061
1491873314.092094, 1491873314.094517, +0.041931, -1.936890, +0.061707, -36.819458, +18.844604, +61.737061
1491873314.094790, 1491873314.097213, +0.041931, -1.655640, -0.045776, -31.448364, +7.873535, +67.108154
1491873314.097484, 1491873314.099907, -0.319336, -1.656555, -0.045776, -31.448364, +7.873535, +67.108154
1491873314.100190, 1491873314.102486, -0.319336, -1.656555, -0.045776, -26.092529, -4.058838, +69.549561
1491873314.102752, 1491873314.105048, -0.319336, -1.656555, -0.045776, -26.092529, -4.058838, +69.549561
1491873314.105311, 1491873314.107609, -0.694336, -1.302612, -0.072693, -19.851685, -14.083862, +69.290161
1491873314.107876, 1491873314.110178, -0.657898, -1.302612, -0.072693, -19.851685, -14.083862, +69.290161
1491873314.110444, 1491873314.112743, -0.657898, -1.302612, -0.072693, -17.150879, -21.514893, +71.762085
1491873314.113009, 1491873314.115307, -0.657898, -1.302612, -0.072693, -17.150879, -21.514893, +71.762085
1491873314.115574, 1491873314.117869, -0.798523, -0.769409, -0.049805, -17.150879, -23.605347, +74.127197
1491873314.118136, 1491873314.120502, -0.819580, -0.769409, -0.049805, -15.808105, -23.605347, +74.127197
1491873314.120778, 1491873314.123200, -0.819580, -0.769409, -0.049805, -13.351440, -23.239136, +74.615479
1491873314.123475, 1491873314.125900, -0.819580, -0.769409, -0.049805, -13.351440, -23.239136, +74.615479
1491873314.126175, 1491873314.128597, -0.746521, -0.416931, -0.182190, -6.515503, -20.263672, +75.286865
1491873314.128869, 1491873314.131301, -0.746521, -0.416931, -0.182190, -6.515503, -20.263672, +75.286865
1491873314.131571, 1491873314.133992, -0.746521, -0.416931, -0.182190, +3.784180, -16.479492, +75.988770
1491873314.134263, 1491873314.136684, -0.746521, -0.416931, -0.182190, +3.784180, -16.479492, +75.988770
1491873314.136954, 1491873314.139379, -0.633362, -0.075256, -0.491272, +13.305664, -10.986328, +75.637817
1491873314.139654, 1491873314.142119, -0.633362, -0.075256, -0.491272, +13.305664, -10.986328, +75.637817
1491873314.142394, 1491873314.144812, -0.633362, -0.075256, -0.491272, +21.392822, -3.997803, +75.775146
1491873314.145085, 1491873314.147505, -0.633362, -0.075256, -0.960022, +21.392822, -3.997803, +75.775146
1491873314.147777, 1491873314.150199, -0.646912, +0.579529, -0.964417, +31.066895, +0.747681, +74.523926
1491873314.150464, 1491873314.152763, -0.646912, +0.579529, -0.964417, +31.066895, +0.747681, +74.523926
1491873314.153027, 1491873314.155321, -0.646912, +0.579529, -0.964417, +43.518066, +0.595093, +69.992065
1491873314.155586, 1491873314.157883, -0.646912, +1.423279, -1.256836, +43.518066, +0.595093, +69.992065
1491873314.158147, 1491873314.160508, -0.949036, +1.446167, -1.256836, +58.410645, -8.850098, +62.255859
1491873314.160778, 1491873314.163183, -0.949036, +1.446167, -1.256836, +58.410645, -8.850098, +62.255859
1491873314.163454, 1491873314.165860, -0.949036, +1.446167, -1.256836, +72.692871, -39.581299, +49.835205
1491873314.166134, 1491873314.168541, -0.949036, +2.503235, -0.687744, +72.692871, -39.581299, +49.835205
1491873314.168813, 1491873314.171224, -1.342896, +2.503235, -0.687744, +81.924438, -85.937500, +45.516968
1491873314.171496, 1491873314.173905, -1.342896, +2.503235, -0.687744, +81.924438, -85.937500, +45.516968
1491873314.174177, 1491873314.176581, -1.342896, +2.503235, -0.687744, +81.298828, -112.274170, +47.088623
1491873314.176854, 1491873314.179264, -1.641907, +3.253967, -0.262390, +81.298828, -112.274170, +47.088623
1491873314.179539, 1491873314.181956, -1.641907, +3.253967, -0.262390, +65.399170, -130.004883, +65.185547
1491873314.182229, 1491873314.184638, -1.641907, +3.253967, -0.262390, +65.399170, -130.004883, +65.185547
1491873314.184911, 1491873314.187320, -1.641907, +3.253967, -0.262390, +45.303345, -151.260376, +93.429565
1491873314.187706, 1491873314.190124, -1.539185, +2.656128, +0.129456, +45.303345, -151.260376, +93.429565
1491873314.190395, 1491873314.192781, -1.539185, +2.656128, +0.129456, +34.179688, -179.718018, +120.407104
1491873314.193074, 1491873314.197245, -1.539185, +2.656128, +0.129456, +25.070190, -209.533691, +142.166138
1491873314.197525, 1491873314.199824, -1.170227, +1.979187, +0.401550, +25.070190, -209.533691, +142.166138
1491873314.200143, 1491873314.202442, -1.170227, +1.979187, +0.401550, +18.310547, -229.324341, +147.735596
1491873314.202709, 1491873314.205004, -1.170227, +1.979187, +0.401550, +18.310547, -229.324341, +147.735596
1491873314.205272, 1491873314.207567, -1.170227, +1.979187, +0.401550, +13.458252, -222.183228, +135.574341
1491873314.207834, 1491873314.210141, -0.138611, +2.723511, +0.202881, +13.458252, -222.183228, +135.574341
1491873314.210410, 1491873314.212711, -0.138611, +2.723511, +0.202881, +5.859375, -178.253174, +118.911743
1491873314.212977, 1491873314.215271, -0.138611, +2.723511, +0.202881, +5.859375, -178.253174, +118.911743
1491873314.215535, 1491873314.217832, -0.138611, +2.723511, +0.202881, -5.752563, -119.430542, +99.288940
