timestamp_before, timestamp_after, accel_x, accel_y, accel_z, gyro_x, gyro_y, gyro_z
1494288453.038334, 1494288453.041350, +0.026001, +1.241821, -0.192444, -6.958008, -0.900269, +7.476807
1494288453.041696, 1494288453.043993, +0.026001, +0.981079, -0.156006, -6.958008, -0.900269, +7.476807
1494288453.044254, 1494288453.046545, +0.008057, +0.981079, -0.156006, -8.346558, -0.762939, +8.850098
1494288453.046806, 1494288453.049156, +0.008057, +0.981079, -0.156006, -8.346558, -0.762939, +8.850098
1494288453.049417, 1494288453.052368, +0.008057, +0.981079, -0.156006, -7.766724, -0.579834, +7.827759
1494288453.052627, 1494288453.055417, +0.006958, +1.016785, -0.164062, -7.766724, -0.579834, +7.888794
1494288453.055678, 1494288453.058197, +0.006958, +1.016785, -0.164062, -7.553101, -0.473022, +7.888794
1494288453.058466, 1494288453.060768, +0.006958, +1.016785, -0.164062, -7.553101, -0.473022, +7.553101
1494288453.061029, 1494288453.063321, +0.006958, +1.016785, -0.164062, -7.476807, -0.732422, +7.553101
1494288453.063581, 1494288453.065870, +0.010437, +1.014221, -0.164612, -7.476807, -0.732422, +7.858276
1494288453.066129, 1494288453.068436, +0.010437, +1.014221, -0.164612, -7.171631, -0.488281, +7.858276
1494288453.068694, 1494288453.070989, +0.010437, +1.014221, -0.164612, -7.171631, -0.488281, +8.209229
1494288453.071248, 1494288453.073541, +0.010437, +1.014221, -0.164612, -7.492065, -0.305176, +8.209229
1494288453.073799, 1494288453.076101, +0.001282, +1.020630, -0.160034, -7.492065, -0.305176, +8.224487
1494288453.076362, 1494288453.078720, +0.001282, +1.020630, -0.160034, -7.308960, -0.823975, +8.224487
1494288453.078979, 1494288453.081286, +0.001282, +1.020630, -0.160034, -7.308960, -0.823975, +8.224487
1494288453.081545, 1494288453.083838, +0.001282, +1.020630, -0.162781, -7.766724, -0.808716, +8.209229
1494288453.084097, 1494288453.086389, -0.000366, +1.023193, -0.162781, -7.766724, -0.808716, +8.209229
1494288453.086647, 1494288453.088982, -0.000366, +1.023193, -0.162781, -7.415771, -1.525879, +8.239746
1494288453.089240, 1494288453.091537, -0.000366, +1.023193, -0.162781, -7.415771, -1.525879, +8.239746
1494288453.091794, 1494288453.094095, -0.000366, +1.023193, -0.148682, -7.690430, -1.998901, +7.781982
1494288453.094351, 1494288453.096656, +0.007690, +1.028687, -0.148682, -7.690430, -1.998901, +7.781982
1494288453.096913, 1494288453.099278, +0.007690, +1.028687, -0.148682, -7.873535, -2.807617, +7.705688
1494288453.099536, 1494288453.101841, +0.007690, +1.028687, -0.148682, -7.873535, -2.807617, +7.705688
1494288453.102099, 1494288453.104398, +0.007690, +1.028687, -0.152710, -7.919312, -3.280640, +7.720947
1494288453.104656, 1494288453.107045, +0.023804, +1.028870, -0.152710, -7.919312, -3.280640, +7.720947
1494288453.107305, 1494288453.109871, +0.023804, +1.028870, -0.152710, -7.659912, -3.799438, +7.873535
1494288453.110128, 1494288453.112433, +0.023804, +1.028870, -0.152710, -7.659912, -3.799438, +7.873535
1494288453.112688, 1494288453.114992, +0.023804, +1.018250, -0.168457, -7.553101, -4.455566, +8.514404
1494288453.115249, 1494288453.117555, +0.016296, +1.018250, -0.168457, -7.553101, -4.455566, +8.514404
1494288453.117880, 1494288453.120191, +0.016296, +1.018250, -0.168457, -7.858276, -4.440308, +8.544922
1494288453.120449, 1494288453.122756, +0.016296, +1.018250, -0.168457, -7.858276, -4.440308, +8.544922
1494288453.123566, 1494288453.125868, +0.009705, +1.023010, -0.144104, -7.415771, -4.226685, +8.544922
1494288453.126130, 1494288453.128478, +0.009705, +1.023010, -0.144104, -7.415771, -4.226685, +8.544922
1494288453.128746, 1494288453.131173, +0.009705, +1.023010, -0.144104, -7.171631, -4.135132, +8.789062
1494288453.131440, 1494288453.133868, +0.009705, +1.023010, -0.144104, -7.171631, -4.135132, +8.789062
1494288453.134135, 1494288453.136569, -0.002380, +1.023926, -0.149963, -7.263184, -3.433228, +8.880615
1494288453.136835, 1494288453.139270, -0.002380, +1.023926, -0.149963, -7.263184, -3.433228, +9.750366
1494288453.139535, 1494288453.142550, -0.002380, +1.023926, -0.149963, -7.247925, -0.320435, +9.750366
1494288453.142962, 1494288453.145770, -0.002380, +1.017334, -0.155273, -7.171631, +2.685547, +9.887695
1494288453.146030, 1494288453.148420, +0.008240, +1.017334, -0.155273, -7.171631, +2.685547, +9.887695
1494288453.148680, 1494288453.150978, +0.008240, +1.017334, -0.155273, -7.217407, +3.295898, +10.086060
1494288453.151240, 1494288453.153530, +0.008240, +1.017334, -0.155273, -7.217407, +3.295898, +10.086060
1494288453.153792, 1494288453.156084, +0.033508, +1.004700, -0.131653, -7.263184, +2.258301, +9.872437
1494288453.156343, 1494288453.158646, +0.033508, +1.004700, -0.131653, -7.263184, +2.258301, +9.872437
1494288453.158904, 1494288453.161200, +0.033508, +1.004700, -0.131653, -6.607056, +2.212524, +9.460449
1494288453.161458, 1494288453.163753, +0.033508, +1.004700, -0.131653, -6.607056, +2.212524, +9.460449
1494288453.164009, 1494288453.166298, +0.045959, +1.000122, -0.124512, -6.134033, +2.426147, +9.033203
1494288453.166556, 1494288453.168916, +0.045959, +1.000122, -0.124512, -6.134033, +2.426147, +9.033203
1494288453.169173, 1494288453.171472, +0.045959, +1.000122, -0.124512, -6.134033, +3.204346, +8.514404
1494288453.171731, 1494288453.174023, +0.045959, +1.000122, -0.124512, -5.508423, +3.204346, +8.514404
1494288453.174281, 1494288453.176578, +0.052734, +1.036743, -0.171204, -5.508423, +7.797241, +8.834839
1494288453.176835, 1494288453.179155, +0.052734, +1.036743, -0.171204, -6.301880, +7.797241, +8.834839
1494288453.179412, 1494288453.181703, +0.052734, +1.036743, -0.171204, -6.301880, +23.422241, +9.765625
1494288453.181966, 1494288453.184262, +0.052734, +1.036743, -0.171204, -8.773804, +21.255493, +9.765625
1494288453.184524, 1494288453.186813, +0.086243, +1.067871, -0.175232, -8.773804, +32.974243, +10.452271
1494288453.187078, 1494288453.189493, +0.086243, +1.067871, -0.175232, -11.337280, +32.363892, +10.452271
1494288453.189760, 1494288453.192064, +0.086243, +1.067871, -0.175232, -11.337280, +32.363892, +9.735107
1494288453.192329, 1494288453.194625, +0.086243, +1.067871, -0.175232, -10.375977, +28.137207, +9.735107
1494288453.194889, 1494288453.197181, +0.030029, +1.010010, -0.064270, -10.375977, +28.137207, +8.590698
1494288453.197446, 1494288453.199961, +0.030029, +1.010010, -0.064270, -10.040283, +20.828247, +8.590698
1494288453.200233, 1494288453.202659, +0.030029, +1.010010, -0.064270, -10.040283, +24.734497, +7.186890
1494288453.202931, 1494288453.205361, +0.030029, +1.010010, -0.064270, -10.696411, +24.276733, +7.186890
1494288453.205633, 1494288453.208064, -0.064819, +1.078857, -0.052551, -10.696411, +24.276733, +6.637573
1494288453.208335, 1494288453.210755, -0.064819, +1.078857, -0.052551, -10.879517, +24.368286, +6.637573
1494288453.211026, 1494288453.213455, -0.064819, +1.078857, -0.052551, -10.879517, +18.157959, +6.027222
1494288453.213728, 1494288453.216154, -0.064819, +0.985107, -0.078003, -10.910034, +18.157959, +6.027222
1494288453.216427, 1494288453.218814, -0.098694, +1.020630, -0.078003, -10.910034, +15.396118, +4.364014
1494288453.219078, 1494288453.221381, -0.098694, +1.020630, -0.078003, -11.032104, +15.396118, +4.364014
1494288453.221646, 1494288453.223947, -0.098694, +1.020630, -0.078003, -11.032104, +12.283325, +3.128052
1494288453.224209, 1494288453.226516, -0.098694, +0.977051, -0.161316, -10.116577, +12.283325, +3.128052
1494288453.226781, 1494288453.229125, -0.001282, +0.977051, -0.161316, -10.116577, +9.216309, +2.624512
1494288453.229387, 1494288453.231687, -0.001282, +0.977051, -0.161316, -9.155273, +9.216309, +2.624512
1494288453.231946, 1494288453.234247, -0.001282, +0.977051, -0.161316, -9.155273, +5.310059, +2.288818
1494288453.234505, 1494288453.236802, +0.045593, +1.008545, -0.171570, -8.682251, +6.622314, +2.288818
1494288453.237061, 1494288453.239478, +0.034607, +1.008545, -0.171570, -8.682251, +6.622314, +2.166748
1494288453.239737, 1494288453.242036, +0.034607, +1.008545, -0.171570, -9.155273, +4.470825, +2.166748
1494288453.242293, 1494288453.244591, +0.034607, +1.008545, -0.171570, -9.155273, +4.470825, +1.281738
1494288453.244848, 1494288453.247151, +0.034607, +1.018066, -0.181824, -9.811401, +2.960205, +1.281738
1494288453.247520, 1494288453.249995, +0.030029, +1.018066, -0.181824, -9.811401, +2.960205, +0.762939
1494288453.250261, 1494288453.252687, +0.030029, +1.018066, -0.181824, -9.796143, +1.998901, +0.762939
1494288453.252952, 1494288453.255463, +0.030029, +1.018066, -0.181824, -9.796143, +1.480103, +0.762939
1494288453.255732, 1494288453.258167, +0.027466, +1.059082, -0.143005, -10.299683, +1.480103, +0.762939
1494288453.258438, 1494288453.260861, +0.027466, +1.059082, -0.143005, -10.299683, +0.305176, +0.534058
1494288453.261131, 1494288453.263555, +0.027466, +1.059082, -0.143005, -11.444092, +0.305176, +0.534058
1494288453.263824, 1494288453.266248, +0.027466, +1.059082, -0.143005, -15.350342, -0.579834, +0.122070
1494288453.266518, 1494288453.268923, -0.000366, +1.050293, -0.160034, -12.374878, -0.579834, +0.122070
1494288453.269187, 1494288453.271480, -0.000366, +1.050293, -0.160034, -12.390137, -2.410889, +0.000000
1494288453.271741, 1494288453.274040, -0.000366, +1.050293, -0.160034, -12.390137, -2.410889, +0.000000
1494288453.274300, 1494288453.276603, -0.000366, +1.050293, -0.160034, -12.390137, -4.241943, -0.091553
1494288453.276866, 1494288453.279253, +0.015381, +1.021545, -0.140991, -12.954712, -4.241943, -0.091553
1494288453.279526, 1494288453.281954, +0.015381, +1.021545, -0.140991, -12.954712, -6.362915, +0.122070
1494288453.282225, 1494288453.284649, +0.015381, +1.021545, -0.140991, -13.473511, -6.362915, +0.122070
1494288453.284918, 1494288453.287342, +0.015381, +1.021545, -0.126343, -13.854980, -8.422852, +0.244141
1494288453.287612, 1494288453.289930, -0.054565, +1.013672, -0.126343, -13.854980, -8.422852, +0.244141
1494288453.290192, 1494288453.292486, -0.054565, +1.013672, -0.126343, -13.854980, -10.498047, +0.595093
1494288453.292749, 1494288453.295044, -0.054565, +1.013672, -0.126343, -14.358521, -10.498047, +0.595093
1494288453.295308, 1494288453.297605, -0.054565, +0.987305, -0.129272, -14.358521, -13.076782, +0.976562
1494288453.297980, 1494288453.300363, -0.029114, +0.987305, -0.129272, -13.916016, -13.076782, +0.976562
1494288453.300630, 1494288453.302937, -0.029114, +0.987305, -0.129272, -13.916016, -15.457153, +1.266479
1494288453.303201, 1494288453.305503, -0.029114, +0.987305, -0.129272, -13.504028, -15.457153, +1.266479
1494288453.305766, 1494288453.308193, +0.017761, +0.972473, -0.124512, -13.504028, -18.112183, +2.090454
1494288453.308459, 1494288453.310762, +0.040100, +0.972473, -0.124512, -13.076782, -18.112183, +2.090454
1494288453.311027, 1494288453.313328, +0.040100, +0.972473, -0.124512, -13.076782, -19.729614, +2.960205
1494288453.313594, 1494288453.315894, +0.040100, +0.972473, -0.124512, -13.595581, -19.729614, +2.960205
1494288453.316158, 1494288453.318649, +0.038452, +1.001587, -0.130371, -13.595581, -20.141602, +3.128052
1494288453.318915, 1494288453.321213, +0.038452, +1.001587, -0.130371, -12.634277, -20.141602, +3.128052
1494288453.321478, 1494288453.323889, +0.038452, +1.001587, -0.130371, -12.634277, -19.851685, +3.097534
1494288453.324155, 1494288453.326452, +0.038452, +1.001587, -0.130371, -12.130737, -19.851685, +3.097534
1494288453.327677, 1494288453.329979, +0.048157, +1.027588, -0.143005, -10.696411, -19.058228, +2.609253
1494288453.330246, 1494288453.332543, +0.048157, +1.027588, -0.143005, -10.696411, -19.058228, +2.609253
1494288453.332807, 1494288453.335100, +0.048157, +1.027588, -0.143005, -9.399414, -17.837524, +2.136230
1494288453.335360, 1494288453.337659, +0.048157, +1.027588, -0.147949, -9.399414, -17.837524, +2.136230
1494288453.337978, 1494288453.340275, +0.137146, +1.000122, -0.147949, -8.407593, -16.555786, +1.800537
1494288453.340535, 1494288453.342830, +0.137146, +1.000122, -0.147949, -8.407593, -16.555786, +1.800537
1494288453.343092, 1494288453.345397, +0.137146, +1.000122, -0.147949, -7.186890, -14.144897, +1.251221
1494288453.345657, 1494288453.348012, +0.137146, +1.000122, -0.135315, -7.186890, -14.144897, +1.251221
1494288453.348272, 1494288453.350564, +0.139893, +0.993347, -0.135315, -6.149292, -11.672974, +0.640869
1494288453.350941, 1494288453.353243, +0.139893, +0.993347, -0.135315, -6.149292, -11.672974, +0.640869
1494288453.353504, 1494288453.355800, +0.139893, +0.993347, -0.135315, -4.882812, -9.643555, -0.381470
1494288453.356059, 1494288453.358391, +0.139893, +0.993347, -0.121948, -4.882812, -9.643555, -0.381470
1494288453.358650, 1494288453.360944, +0.084961, +0.994446, -0.121948, -4.592896, -8.804321, -0.778198
1494288453.361204, 1494288453.363493, +0.084961, +0.994446, -0.121948, -4.592896, -8.804321, -0.778198
1494288453.363752, 1494288453.366052, +0.084961, +0.994446, -0.121948, -0.686646, -9.063721, -0.885010
1494288453.366311, 1494288453.368700, +0.084961, +0.992065, -0.099060, -3.875732, -9.063721, -0.885010
1494288453.368960, 1494288453.371260, +0.084229, +0.992065, -0.099060, -7.781982, -10.025024, -1.373291
1494288453.371522, 1494288453.373827, +0.084229, +0.992065, -0.099060, -4.287720, -10.025024, -1.373291
1494288453.374088, 1494288453.376393, +0.084229, +0.992065, -0.099060, -4.287720, -11.596680, -0.656128
1494288453.376655, 1494288453.379118, +0.084229, +0.977600, -0.080017, -4.516602, -11.596680, -0.656128
1494288453.379392, 1494288453.381808, +0.143372, +0.977600, -0.080017, -4.516602, -13.107300, -0.015259
1494288453.382078, 1494288453.384490, +0.143372, +0.977600, -0.080017, -4.364014, -13.107300, -0.015259
1494288453.384760, 1494288453.387170, +0.143372, +0.977600, -0.080017, -4.364014, -13.458252, -0.488281
1494288453.387440, 1494288453.389864, +0.234192, +0.944092, -0.104187, -4.547119, -13.458252, -0.488281
1494288453.390133, 1494288453.392545, +0.234192, +0.944092, -0.104187, -4.074097, -13.473511, -0.534058
1494288453.392813, 1494288453.395230, +0.234192, +0.944092, -0.104187, -4.074097, -13.473511, -0.534058
1494288453.395500, 1494288453.397964, +0.234192, +0.944092, -0.104187, -2.182007, -12.603760, -1.052856
1494288453.398234, 1494288453.400650, +0.318420, +0.903259, -0.173767, -2.182007, -12.603760, -1.052856
1494288453.400919, 1494288453.403328, +0.318420, +0.903259, -0.173767, +0.900269, -11.367798, -1.663208
1494288453.403597, 1494288453.406005, +0.318420, +0.903259, -0.173767, +0.900269, -11.367798, -1.663208
1494288453.406273, 1494288453.408692, +0.318420, +0.903259, -0.267517, +4.272461, -9.384155, -2.014160
1494288453.408958, 1494288453.411371, +0.348450, +0.916809, -0.274658, +4.272461, -9.384155, -2.014160
1494288453.411637, 1494288453.414042, +0.348450, +0.916809, -0.274658, +8.804321, -1.556396, -1.281738
1494288453.414307, 1494288453.416725, +0.348450, +0.916809, -0.274658, +8.804321, -1.556396, -1.281738
1494288453.416989, 1494288453.419418, +0.348450, +1.057434, -0.207642, +9.613037, +3.952026, -2.883911
1494288453.419682, 1494288453.422096, -0.070312, +1.075378, -0.207642, +9.613037, +3.952026, -2.883911
1494288453.422360, 1494288453.424771, -0.070312, +1.075378, -0.207642, +5.569458, +0.946045, -4.714966
1494288453.425037, 1494288453.427449, -0.070312, +1.075378, -0.207642, +5.569458, +0.946045, -4.714966
1494288453.427749, 1494288453.430185, -0.299194, +1.264893, +0.011719, +0.488281, -2.059937, -6.820679
1494288453.430448, 1494288453.432876, -0.299194, +1.264893, +0.011719, +0.488281, -2.059937, -6.820679
1494288453.433141, 1494288453.435649, -0.299194, +1.264893, +0.011719, -3.189087, -12.985229, -6.607056
1494288453.435917, 1494288453.438355, -0.299194, +1.264893, +0.011719, -3.189087, -12.985229, -6.607056
1494288453.438623, 1494288453.441046, -0.163879, +1.195496, +0.057312, -5.325317, -23.239136, -6.347656
1494288453.441318, 1494288453.443736, -0.163879, +1.195496, +0.057312, -5.325317, -23.239136, -6.347656
1494288453.444004, 1494288453.446431, -0.163879, +1.195496, +0.057312, -5.264282, -28.656006, -7.339478
1494288453.446699, 1494288453.449163, -0.163879, +1.195496, +0.057312, -5.264282, -28.656006, -7.339478
1494288453.449431, 1494288453.451851, -0.055664, +1.089478, -0.066101, -2.731323, -28.015137, -10.360718
1494288453.452123, 1494288453.454550, -0.055664, +1.089478, -0.066101, -2.731323, -28.015137, -10.360718
1494288453.454822, 1494288453.457242, -0.055664, +1.089478, -0.066101, -0.061035, -25.421143, -13.336182
1494288453.457621, 1494288453.460060, -0.055664, +1.037659, -0.113525, -0.061035, -25.421143, -15.396118
1494288453.460333, 1494288453.462754, +0.113342, +1.037659, -0.113525, +1.693726, -24.215698, -15.396118
1494288453.463027, 1494288453.465450, +0.113342, +1.037659, -0.113525, +1.693726, -24.215698, -17.211914
1494288453.465721, 1494288453.468140, +0.113342, +1.037659, -0.113525, +0.534058, -24.200439, -17.211914
1494288453.468406, 1494288453.470707, +0.057678, +1.044250, -0.096313, +0.534058, -24.200439, -19.302368
1494288453.470973, 1494288453.473276, +0.057678, +1.044250, -0.096313, -1.098633, -23.117065, -19.302368
1494288453.473540, 1494288453.475836, +0.057678, +1.044250, -0.096313, -1.098633, -23.117065, -21.102905
1494288453.476101, 1494288453.478495, +0.057678, +1.044250, -0.096313, -2.761841, -22.262573, -21.102905
1494288453.478759, 1494288453.481063, +0.006042, +1.014038, -0.114075, -2.761841, -22.262573, -22.201538
1494288453.481329, 1494288453.483628, +0.006042, +1.014038, -0.114075, -3.128052, -21.286011, -22.201538
1494288453.483892, 1494288453.486192, +0.006042, +1.014038, -0.114075, -3.128052, -21.286011, -26.107788
1494288453.486458, 1494288453.488891, +0.006042, +1.014038, -0.114075, -2.883911, -19.134521, -24.215698
1494288453.489163, 1494288453.491577, +0.069214, +0.998657, -0.130188, -2.883911, -19.134521, -26.336670
1494288453.491849, 1494288453.494258, +0.069214, +0.998657, -0.130188, -3.112793, -16.845703, -26.336670
1494288453.494530, 1494288453.496937, +0.069214, +0.998657, -0.130188, -3.112793, -16.845703, -27.877808
1494288453.497208, 1494288453.499633, +0.069214, +0.998657, -0.130188, -3.158569, -15.335083, -27.877808
1494288453.499903, 1494288453.502317, +0.022888, +1.044617, -0.152893, -3.158569, -15.335083, -29.754639
1494288453.502589, 1494288453.504996, +0.022888, +1.044617, -0.152893, -4.760742, -13.793945, -29.754639
1494288453.505265, 1494288453.507914, +0.022888, +1.044617, -0.152893, -4.760742, -13.793945, -31.127930
1494288453.508185, 1494288453.510566, +0.022888, +1.044617, -0.176331, -6.484985, -13.656616, -31.127930
1494288453.510836, 1494288453.513224, -0.049622, +1.052124, -0.176331, -6.484985, -13.916016, -32.745361
1494288453.513537, 1494288453.515926, -0.049622, +1.052124, -0.176331, -7.812500, -13.916016, -32.745361
1494288453.516194, 1494288453.518750, -0.049622, +1.052124, -0.176331, -11.718750, -15.258789, -33.843994
1494288453.519027, 1494288453.521458, -0.029114, +1.052307, -0.157837, -9.307861, -15.258789, -33.843994
1494288453.521729, 1494288453.524151, -0.029114, +1.052307, -0.157837, -10.971069, -17.013550, -35.018921
1494288453.524426, 1494288453.526853, -0.029114, +1.052307, -0.157837, -10.971069, -17.013550, -35.018921
1494288453.527128, 1494288453.529574, -0.029114, +1.052307, -0.157837, -12.359619, -18.432617, -36.209106
1494288453.529847, 1494288453.532273, -0.048706, +1.069336, -0.147217, -12.359619, -18.432617, -36.209106
1494288453.532547, 1494288453.534972, -0.048706, +1.069336, -0.147217, -14.022827, -19.775391, -37.658691
1494288453.535246, 1494288453.537675, -0.048706, +1.069336, -0.147217, -14.022827, -19.775391, -37.658691
1494288453.537999, 1494288453.540425, -0.048706, +1.069336, -0.147217, -14.739990, -21.759033, -38.986206
1494288453.540698, 1494288453.543124, -0.065002, +1.055786, -0.129272, -14.739990, -21.759033, -38.986206
1494288453.543396, 1494288453.545823, -0.065002, +1.055786, -0.129272, -16.128540, -24.093628, -40.573120
1494288453.546097, 1494288453.548521, -0.065002, +1.055786, -0.129272, -16.128540, -24.093628, -40.573120
1494288453.548789, 1494288453.551096, -0.065002, +1.055786, -0.116455, -16.464233, -25.238037, -42.404175
1494288453.551362, 1494288453.553663, +0.004578, +0.998657, -0.116455, -16.464233, -25.238037, -42.404175
1494288453.553930, 1494288453.556227, +0.004578, +0.998657, -0.116455, -15.747070, -24.887085, -43.945312
1494288453.556495, 1494288453.558802, +0.004578, +0.998657, -0.116455, -15.747070, -24.887085, -43.945312
1494288453.559178, 1494288453.561481, +0.004578, +0.962036, -0.152161, -15.838623, -22.903442, -45.684814
1494288453.561751, 1494288453.564055, +0.048340, +0.962036, -0.152161, -15.838623, -22.903442, -45.684814
1494288453.564322, 1494288453.566616, +0.048340, +0.962036, -0.152161, -15.670776, -20.645142, -48.233032
1494288453.566883, 1494288453.569273, +0.048340, +0.962036, -0.152161, -15.670776, -20.645142, -48.233032
1494288453.569540, 1494288453.571847, +0.048340, +0.999939, -0.151245, -16.845703, -18.829346, -50.430298
1494288453.572114, 1494288453.574414, +0.048523, +0.999939, -0.151245, -16.845703, -18.829346, -50.430298
1494288453.574679, 1494288453.576980, +0.048523, +0.999939, -0.151245, -17.807007, -16.647339, -52.413940
1494288453.577247, 1494288453.579799, +0.048523, +0.999939, -0.151245, -17.807007, -16.647339, -52.413940
1494288453.580075, 1494288453.582495, +0.017395, +1.053040, -0.135132, -18.371582, -13.305664, -54.107666
1494288453.582771, 1494288453.585199, +0.017395, +1.053040, -0.135132, -18.371582, -13.305664, -54.107666
1494288453.585474, 1494288453.587948, +0.017395, +1.053040, -0.135132, -19.180298, -11.795044, -56.304932
1494288453.588221, 1494288453.590642, +0.017395, +1.053040, -0.135132, -19.180298, -11.795044, -56.304932
1494288453.590916, 1494288453.593345, -0.035156, +1.102295, -0.112610, -21.133423, -11.749268, -57.830811
1494288453.593619, 1494288453.596043, -0.035156, +1.102295, -0.112610, -21.133423, -11.749268, -57.830811
1494288453.596320, 1494288453.598755, -0.035156, +1.102295, -0.112610, -23.208618, -11.352539, -59.036255
1494288453.599031, 1494288453.601459, -0.035156, +1.102295, -0.112610, -23.208618, -11.352539, -59.036255
1494288453.601735, 1494288453.604158, -0.068848, +1.159790, -0.125244, -24.932861, -11.474609, -59.951782
1494288453.604431, 1494288453.606859, -0.068848, +1.159790, -0.125244, -24.932861, -11.474609, -59.951782
1494288453.607131, 1494288453.609470, -0.068848, +1.159790, -0.125244, -26.138306, -11.077881, -61.050415
1494288453.609739, 1494288453.612034, -0.068848, +1.206665, -0.141541, -26.138306, -11.077881, -61.050415
1494288453.612300, 1494288453.614603, -0.082581, +1.203186, -0.141541, -28.656006, -10.910034, -62.362671
1494288453.614870, 1494288453.617167, -0.082581, +1.203186, -0.141541, -28.656006, -10.910034, -62.362671
1494288453.617433, 1494288453.619851, -0.082581, +1.203186, -0.141541, -31.509399, -11.001587, -63.705444
1494288453.620127, 1494288453.622540, -0.082581, +1.218384, -0.170471, -31.509399, -11.001587, -63.705444
1494288453.622815, 1494288453.625218, -0.032410, +1.218384, -0.170471, -33.309937, -9.124756, -65.841675
1494288453.625491, 1494288453.627949, -0.032410, +1.218384, -0.170471, -33.309937, -9.124756, -65.841675
1494288453.628222, 1494288453.630632, -0.032410, +1.218384, -0.170471, -34.271240, -4.959106, -68.161011
1494288453.630902, 1494288453.633316, +0.109131, +1.125366, -0.297546, -34.271240, -4.959106, -68.161011
1494288453.633588, 1494288453.636126, +0.109131, +1.125366, -0.297546, -33.706665, -0.839233, -70.968628
1494288453.636399, 1494288453.639158, +0.109131, +1.125366, -0.297546, -33.706665, -0.839233, -72.998047
1494288453.639433, 1494288453.641870, +0.109131, +1.125366, -0.297546, -32.913208, +1.144409, -72.998047
1494288453.642142, 1494288453.644565, +0.098511, +0.904541, -0.310181, -32.913208, +1.144409, -74.508667
1494288453.644838, 1494288453.647265, +0.098511, +0.904541, -0.310181, -31.829834, +3.494263, -74.508667
1494288453.647537, 1494288453.649974, +0.098511, +0.904541, -0.310181, -31.829834, +6.851196, -74.661255
1494288453.650248, 1494288453.652670, +0.098511, +0.904541, -0.169006, -31.082153, +6.851196, -74.661255
1494288453.652944, 1494288453.655372, -0.204895, +0.832397, -0.169006, -31.082153, +9.246826, -74.264526
1494288453.655644, 1494288453.658072, -0.204895, +0.832397, -0.169006, -31.021118, +9.246826, -74.264526
1494288453.658344, 1494288453.660765, -0.204895, +0.832397, -0.169006, -32.012939, +8.178711, -73.379517
1494288453.661037, 1494288453.663467, -0.439270, +0.913696, +0.021973, -32.012939, +8.178711, -73.379517
1494288453.663849, 1494288453.666277, -0.454834, +0.913696, +0.021973, -33.584595, +4.089355, -72.433472
1494288453.666550, 1494288453.668931, -0.454834, +0.913696, +0.021973, -33.584595, +4.089355, -72.433472
1494288453.669197, 1494288453.671501, -0.454834, +0.913696, +0.021973, -35.354614, -0.686646, -71.304321
1494288453.671765, 1494288453.674068, -0.404114, +0.975037, +0.152527, -35.354614, -0.686646, -71.304321
1494288453.674332, 1494288453.676634, -0.404114, +0.975037, +0.152527, -36.422729, -4.959106, -69.061279
1494288453.676897, 1494288453.679197, -0.404114, +0.975037, +0.152527, -36.422729, -4.959106, -69.061279
1494288453.679461, 1494288453.681761, -0.404114, +0.975037, +0.152527, -36.895752, -6.973267, -67.001343
1494288453.682025, 1494288453.684332, -0.307983, +0.979797, +0.208374, -36.895752, -6.973267, -67.001343
1494288453.684595, 1494288453.686895, -0.307983, +0.979797, +0.208374, -36.895752, -7.339478, -64.971924
1494288453.687158, 1494288453.689615, -0.307983, +0.979797, +0.208374, -37.460327, -7.339478, -64.971924
1494288453.689879, 1494288453.692179, -0.307983, +0.979797, +0.208374, -37.460327, -7.339478, -63.201904
1494288453.692445, 1494288453.694740, -0.250305, +1.009644, +0.178345, -38.391113, -7.339478, -63.201904
1494288453.695005, 1494288453.697311, -0.250305, +1.009644, +0.178345, -38.391113, -7.278442, -61.569214
1494288453.697575, 1494288453.700076, -0.250305, +1.009644, +0.178345, -38.330078, -7.278442, -61.569214
1494288453.700347, 1494288453.702737, -0.250305, +1.009644, +0.178345, -38.330078, -6.729126, -60.638428
1494288453.703006, 1494288453.705399, -0.240234, +1.009460, +0.087524, -38.391113, -6.729126, -60.638428
1494288453.705669, 1494288453.708056, -0.240234, +1.009460, +0.087524, -38.299561, -6.683350, -60.272217
1494288453.708320, 1494288453.710622, -0.240234, +1.009460, +0.087524, -38.299561, -6.683350, -60.272217
1494288453.710888, 1494288453.713189, -0.240234, +1.009460, -0.006226, -38.299561, -7.019043, -59.661865
1494288453.713455, 1494288453.715755, -0.245728, +1.103027, -0.021240, -38.818359, -7.019043, -59.661865
1494288453.716018, 1494288453.718395, -0.245728, +1.103027, -0.021240, -38.818359, -6.942749, -58.929443
1494288453.718665, 1494288453.721089, -0.245728, +1.103027, -0.021240, -40.557861, -6.942749, -58.929443
1494288453.721359, 1494288453.723781, -0.245728, +1.103027, -0.103821, -40.557861, -6.835938, -58.670044
1494288453.724053, 1494288453.726483, -0.236755, +1.186707, -0.103821, -41.442871, -6.835938, -58.670044
1494288453.726756, 1494288453.729193, -0.236755, +1.186707, -0.103821, -41.885376, -6.851196, -57.601929
1494288453.729465, 1494288453.731889, -0.236755, +1.186707, -0.103821, -41.885376, -6.851196, -57.601929
1494288453.732162, 1494288453.734592, -0.236755, +1.101562, -0.162231, -41.000366, -3.677368, -56.655884
1494288453.734863, 1494288453.737284, -0.275024, +1.101562, -0.162231, -41.000366, -3.677368, -56.655884
1494288453.737555, 1494288453.739998, -0.275024, +1.101562, -0.162231, -38.452148, +3.585815, -55.541992
1494288453.740268, 1494288453.742690, -0.275024, +1.101562, -0.162231, -38.452148, +3.585815, -55.541992
1494288453.742962, 1494288453.745386, -0.336548, +1.025940, -0.065552, -36.117554, +7.858276, -55.984497
1494288453.745659, 1494288453.748101, -0.336548, +1.025940, -0.065552, -36.117554, +7.858276, -55.984497
1494288453.748373, 1494288453.750799, -0.336548, +1.025940, -0.065552, -34.347534, +6.500244, -56.503296
1494288453.751070, 1494288453.753495, -0.336548, +1.025940, -0.065552, -34.347534, +6.500244, -56.503296
1494288453.753813, 1494288453.756313, -0.364746, +0.937866, +0.039368, -31.875610, +4.302979, -56.243896
1494288453.756586, 1494288453.759305, -0.364746, +0.937866, +0.039368, -31.875610, +4.302979, -56.243896
1494288453.759575, 1494288453.761880, -0.364746, +0.937866, +0.039368, -30.731201, +3.692627, -54.122925
1494288453.762147, 1494288453.764439, -0.364746, +0.844116, +0.107849, -30.731201, +3.692627, -54.122925
1494288453.764702, 1494288453.767004, -0.348816, +0.870850, +0.107849, -29.190063, +3.082275, -51.620483
1494288453.767378, 1494288453.769813, -0.348816, +0.870850, +0.107849, -29.190063, +3.082275, -51.620483
1494288453.770085, 1494288453.772513, -0.348816, +0.870850, +0.107849, -27.343750, +1.556396, -47.973633
1494288453.772786, 1494288453.775212, -0.395691, +0.726379, +0.111328, -27.343750, +1.556396, -47.973633
1494288453.775484, 1494288453.777964, -0.382507, +0.726379, +0.111328, -24.795532, +1.785278, -44.769287
1494288453.778237, 1494288453.780666, -0.382507, +0.726379, +0.111328, -24.795532, +1.785278, -40.863037
1494288453.780936, 1494288453.783367, -0.382507, +0.726379, +0.111328, -22.003174, +2.166748, -40.420532
1494288453.783638, 1494288453.786062, -0.554260, +0.654968, +0.076538, -22.003174, +2.166748, -32.608032
1494288453.786333, 1494288453.788720, -0.554260, +0.654968, +0.076538, -19.744873, +0.823975, -34.729004
1494288453.788986, 1494288453.791291, -0.554260, +0.654968, +0.076538, -19.744873, +0.823975, -30.822754
1494288453.791556, 1494288453.793858, -0.554260, +0.654968, +0.076538, -17.608643, -1.876831, -29.296875
1494288453.794121, 1494288453.796425, -0.553162, +0.641418, +0.060425, -17.608643, -1.876831, -21.484375
1494288453.796691, 1494288453.798999, -0.553162, +0.641418, +0.060425, -15.701294, -5.981445, -23.132324
1494288453.799264, 1494288453.801558, -0.553162, +0.641418, +0.060425, -15.701294, -5.981445, -23.132324
1494288453.801823, 1494288453.804131, -0.553162, +0.641418, +0.060425, -13.381958, -8.285522, -15.945435
1494288453.804396, 1494288453.806695, -0.463623, +0.588135, +0.023804, -13.381958, -8.285522, -15.945435
1494288453.806957, 1494288453.809416, -0.463623, +0.588135, +0.023804, -10.650635, -8.666992, -8.483887
1494288453.809680, 1494288453.811982, -0.463623, +0.588135, +0.023804, -10.650635, -8.666992, -8.483887
1494288453.812244, 1494288453.814540, -0.463623, +0.588135, +0.023804, -6.484985, -7.965088, -0.320435
1494288453.814798, 1494288453.817105, -0.624023, +0.605896, +0.013184, -6.484985, -7.965088, -0.320435
1494288453.817364, 1494288453.819905, -0.624023, +0.605896, +0.013184, -1.998901, -8.865356, +7.766724
1494288453.820171, 1494288453.822594, -0.624023, +0.605896, +0.013184, -1.998901, -8.865356, +7.766724
1494288453.822861, 1494288453.825295, -0.624023, +0.605896, +0.100525, +1.693726, -11.062622, +15.380859
1494288453.825567, 1494288453.828001, -0.638123, +0.966431, +0.100525, +1.693726, -11.062622, +23.193359
1494288453.828272, 1494288453.830692, -0.638123, +0.966431, +0.100525, +4.730225, -13.412476, +23.330688
1494288453.830966, 1494288453.833394, -0.638123, +0.966431, +0.100525, +4.730225, -13.412476, +35.049438
1494288453.833666, 1494288453.836090, -0.263123, +1.138916, +0.079468, +7.934570, -10.864258, +31.890869
1494288453.836361, 1494288453.838805, -0.268616, +1.138916, +0.079468, +7.934570, -10.864258, +38.818359
1494288453.839078, 1494288453.841501, -0.268616, +1.138916, +0.079468, +11.749268, -3.082275, +38.818359
1494288453.841772, 1494288453.844198, -0.268616, +1.138916, +0.079468, +11.749268, -3.082275, +43.869019
1494288453.844470, 1494288453.846900, -0.362366, +1.268738, +0.169739, +16.860962, +4.592896, +43.869019
1494288453.847171, 1494288453.849608, -0.362366, +1.268738, +0.169739, +16.860962, +8.499146, +51.284790
1494288453.849881, 1494288453.852308, -0.362366, +1.268738, +0.169739, +20.767212, +9.506226, +51.284790
1494288453.852583, 1494288453.855009, -0.362366, +1.268738, +0.169739, +20.767212, +11.810303, +59.082031
1494288453.855283, 1494288453.857751, -0.525330, +1.533508, +0.352478, +22.735596, +11.810303, +59.082031
1494288453.858018, 1494288453.860320, -0.525330, +1.533508, +0.352478, +22.735596, +13.229370, +66.101074
1494288453.860586, 1494288453.862886, -0.525330, +1.533508, +0.352478, +26.062012, +13.229370, +66.101074
1494288453.863153, 1494288453.865450, -0.525330, +1.533508, +0.493103, +26.062012, +17.135620, +71.151733
1494288453.865716, 1494288453.868047, -0.208191, +1.890930, +0.486694, +29.373169, +15.869141, +71.151733
1494288453.868321, 1494288453.870754, -0.208191, +1.890930, +0.486694, +29.373169, +19.775391, +73.699951
1494288453.871137, 1494288453.873562, -0.208191, +1.890930, +0.486694, +33.508301, +19.989014, +73.699951
1494288453.873884, 1494288453.876361, -0.208191, +2.322693, +0.399536, +37.414551, +24.414062, +74.356079
1494288453.876635, 1494288453.879398, -0.054199, +2.322693, +0.399536, +38.040161, +24.414062, +74.356079
1494288453.879675, 1494288453.882112, -0.054199, +2.322693, +0.399536, +41.168213, +25.817871, +74.630737
1494288453.882388, 1494288453.884816, -0.054199, +2.322693, +0.399536, +41.168213, +25.817871, +74.630737
1494288453.885091, 1494288453.887513, -0.107849, +2.449402, +0.235474, +46.188354, +22.460938, +76.950073
1494288453.887798, 1494288453.890234, -0.107849, +2.449402, +0.235474, +46.188354, +22.460938, +76.950073
1494288453.890508, 1494288453.892932, -0.107849, +2.449402, +0.235474, +50.277710, +16.036987, +80.780029
1494288453.893206, 1494288453.895632, -0.107849, +2.449402, +0.235474, +50.277710, +16.036987, +80.780029
1494288453.895908, 1494288453.898374, +0.066101, +2.357117, +0.099792, +55.007935, +4.135132, +86.364746
1494288453.898647, 1494288453.901078, +0.066101, +2.357117, +0.099792, +55.007935, +4.135132, +86.364746
1494288453.901350, 1494288453.903775, +0.066101, +2.357117, +0.099792, +59.951782, -13.000488, +93.887329
1494288453.904049, 1494288453.906473, +0.066101, +2.357117, -0.070312, +59.951782, -13.000488, +93.887329
1494288453.906748, 1494288453.909107, +0.288025, +2.236084, -0.070312, +64.697266, -30.151367, +100.509644
1494288453.909376, 1494288453.911680, +0.288025, +2.236084, -0.070312, +64.697266, -30.151367, +100.509644
1494288453.911949, 1494288453.914247, +0.288025, +2.236084, -0.070312, +68.084717, -45.837402, +109.329224
1494288453.914513, 1494288453.916817, +0.288025, +1.857239, -0.190796, +68.084717, -45.837402, +109.329224
1494288453.917084, 1494288453.919390, +0.566162, +1.857239, -0.190796, +71.197510, -57.037354, +117.126465
1494288453.919659, 1494288453.921955, +0.566162, +1.857239, -0.190796, +71.197510, -57.037354, +117.126465
1494288453.922222, 1494288453.924522, +0.566162, +1.857239, -0.190796, +76.583862, -68.893433, +129.562378
1494288453.924789, 1494288453.927084, +0.566162, +1.966187, -0.381775, +76.583862, -68.893433, +129.562378
1494288453.927349, 1494288453.929800, +0.986023, +1.966187, -0.381775, +80.795288, -79.254150, +139.938354
1494288453.930067, 1494288453.932375, +0.986023, +1.966187, -0.381775, +80.795288, -79.254150, +139.938354
1494288453.932641, 1494288453.934941, +0.986023, +1.966187, -0.381775, +74.707031, -75.897217, +145.538330
1494288453.935209, 1494288453.937508, +0.845398, +1.785645, -0.251770, +74.707031, -75.897217, +145.538330
1494288453.937866, 1494288453.940292, +0.879456, +1.785645, -0.251770, +70.053101, -59.539795, +142.654419
1494288453.940567, 1494288453.942992, +0.879456, +1.785645, -0.251770, +70.053101, -59.539795, +142.654419
1494288453.943268, 1494288453.945700, +0.879456, +1.785645, -0.251770, +70.526123, -44.921875, +136.291504
1494288453.945974, 1494288453.948416, +0.144470, +1.399475, -0.196655, +70.526123, -44.921875, +136.291504
1494288453.948689, 1494288453.951115, +0.144470, +1.399475, -0.196655, +70.419312, -25.238037, +129.135132
1494288453.951389, 1494288453.953815, +0.144470, +1.399475, -0.196655, +70.419312, -25.238037, +129.135132
1494288453.954089, 1494288453.956514, +0.144470, +1.399475, -0.196655, +74.966431, -7.797241, +109.619141
1494288453.956786, 1494288453.959154, -0.448792, +1.193481, -0.016296, +74.966431, -7.797241, +109.619141
1494288453.959419, 1494288453.961716, -0.448792, +1.193481, -0.016296, +65.872192, -14.266968, +97.091675
1494288453.961982, 1494288453.964283, -0.448792, +1.193481, -0.016296, +65.872192, -14.266968, +97.091675
1494288453.964549, 1494288453.966854, -0.448792, +1.193481, -0.016296, +53.970337, -20.736694, +95.413208
1494288453.967121, 1494288453.969562, -0.765930, +1.006165, +0.381775, +53.970337, -20.736694, +95.413208
1494288453.969837, 1494288453.972260, -0.765930, +1.006165, +0.381775, +43.151855, -11.840820, +84.991455
1494288453.972535, 1494288453.974967, -0.765930, +1.006165, +0.381775, +43.151855, -11.840820, +84.991455
1494288453.975347, 1494288453.977779, -0.765930, +0.865540, +0.048706, +30.807495, +3.952026, +76.126099
1494288453.978052, 1494288453.980481, -1.500366, +0.869751, +0.048706, +30.807495, +3.952026, +76.126099
1494288453.980753, 1494288453.983180, -1.500366, +0.869751, +0.048706, +22.613525, +2.517700, +72.967529
1494288453.983451, 1494288453.985875, -1.500366, +0.869751, +0.048706, +22.613525, +2.517700, +65.155029
1494288453.986146, 1494288453.988583, -1.682373, +0.337830, -0.676392, +23.101807, -29.037476, +64.208984
1494288453.988857, 1494288453.991278, -1.682373, +0.337830, -0.676392, +23.101807, -29.037476, +52.673340
1494288453.991553, 1494288453.994115, -1.682373, +0.337830, -0.676392, +28.869629, -68.725586, +52.673340
1494288453.994390, 1494288453.996801, -1.682373, +0.337830, -0.676392, +28.869629, -107.788086, +41.503906
1494288453.997074, 1494288453.999728, -1.646851, +0.393127, -0.492188, +30.960083, -107.559204, +41.503906
1494288453.999996, 1494288454.002299, -1.646851, +0.393127, -0.492188, +30.960083, -141.754150, +35.034180
1494288454.002566, 1494288454.004867, -1.646851, +0.393127, -0.492188, +24.429321, -141.754150, +35.034180
1494288454.005134, 1494288454.007434, -1.646851, +0.393127, -0.492188, +24.429321, -157.379150, +32.119751
1494288454.007700, 1494288454.010180, -1.810730, +0.411804, +0.129639, +5.523682, -158.920288, +32.119751
1494288454.010454, 1494288454.012883, -1.810730, +0.411804, +0.129639, +5.523682, -160.797119, +35.018921
1494288454.013153, 1494288454.015588, -1.810730, +0.411804, +0.129639, -15.930176, -160.797119, +35.018921
1494288454.015863, 1494288454.018292, -1.810730, -0.103821, -0.288025, -15.930176, -165.802002, +44.296265
1494288454.018567, 1494288454.020995, -0.794861, -0.105835, -0.288025, -15.975952, -165.802002, +44.296265
1494288454.021270, 1494288454.023701, -0.794861, -0.105835, -0.288025, -2.563477, -160.171509, +47.744751
1494288454.023974, 1494288454.026396, -0.794861, -0.105835, -0.288025, -2.563477, -160.171509, +47.744751
1494288454.026668, 1494288454.029024, +0.057495, -0.018677, -0.317505, +8.499146, -151.412964, +50.170898
1494288454.029290, 1494288454.031593, +0.057495, -0.018677, -0.317505, +8.499146, -151.412964, +50.170898
1494288454.031858, 1494288454.034157, +0.057495, -0.018677, -0.317505, +14.907837, -144.271851, +54.962158
1494288454.034424, 1494288454.036726, +0.057495, -0.018677, -0.317505, +14.907837, -144.271851, +54.962158
1494288454.036993, 1494288454.039327, +0.351196, +0.040833, -0.000916, +18.814087, -133.255005, +60.028076
1494288454.039594, 1494288454.041893, +0.351196, +0.040833, -0.000916, +17.425537, -133.255005, +60.028076
1494288454.042160, 1494288454.044462, +0.351196, +0.040833, -0.000916, +17.425537, -116.516113, +64.270020
1494288454.044728, 1494288454.047029, +0.351196, +0.040833, -0.000916, +17.196655, -116.516113, +64.270020
1494288454.047295, 1494288454.049644, +0.252686, -0.095764, +0.110779, +17.196655, -98.754883, +66.940308
1494288454.049914, 1494288454.052219, +0.252686, -0.095764, +0.110779, +16.220093, -98.754883, +66.940308
1494288454.052488, 1494288454.054785, +0.252686, -0.095764, +0.110779, +16.220093, -75.317383, +68.389893
1494288454.055052, 1494288454.057356, +0.252686, -0.095764, +0.110779, +15.625000, -76.736450, +68.389893
1494288454.057623, 1494288454.060156, +0.325012, -0.142456, +0.073425, +15.625000, -53.512573, +69.000244
1494288454.060432, 1494288454.062857, +0.325012, -0.142456, +0.073425, +15.060425, -53.512573, +69.000244
1494288454.063133, 1494288454.065559, +0.325012, -0.142456, +0.073425, +18.966675, -31.570435, +65.231323
1494288454.065833, 1494288454.068267, +0.325012, -0.142456, +0.073425, +15.991211, -31.570435, +65.231323
1494288454.068544, 1494288454.070972, +0.230896, -0.062256, -0.215515, +15.991211, -12.054443, +56.564331
1494288454.071247, 1494288454.073680, +0.230896, -0.062256, -0.215515, +18.295288, -12.054443, +56.564331
1494288454.073954, 1494288454.076376, +0.230896, -0.062256, -0.215515, +18.066406, +7.064819, +47.424316
1494288454.076755, 1494288454.079200, +0.230896, -0.015381, -0.215698, +18.066406, +7.064819, +47.424316
1494288454.079474, 1494288454.081887, +0.347351, -0.011902, -0.215698, +18.203735, +24.978638, +37.063599
1494288454.082161, 1494288454.084583, +0.347351, -0.011902, -0.215698, +18.203735, +24.978638, +37.063599
1494288454.084859, 1494288454.087286, +0.347351, -0.011902, -0.215698, +19.760132, +44.052124, +24.276733
1494288454.087560, 1494288454.089873, +0.394226, +0.114807, -0.156006, +19.760132, +44.052124, +24.276733
1494288454.090140, 1494288454.092440, +0.385254, +0.114807, -0.156006, +23.239136, +62.164307, +10.192871
1494288454.092708, 1494288454.095014, +0.385254, +0.114807, -0.156006, +23.239136, +62.164307, +10.192871
1494288454.095280, 1494288454.097574, +0.385254, +0.114807, -0.156006, +26.077271, +76.248169, -4.730225
1494288454.097846, 1494288454.100276, +0.163696, +0.197021, +0.084045, +26.077271, +76.248169, -4.730225
1494288454.100549, 1494288454.102971, +0.163696, +0.197021, +0.084045, +25.924683, +88.851929, -19.195557
1494288454.103245, 1494288454.105668, +0.163696, +0.197021, +0.084045, +25.924683, +88.851929, -19.195557
1494288454.105943, 1494288454.108387, +0.163696, +0.197021, +0.084045, +21.621704, +99.594116, -32.989502
1494288454.108662, 1494288454.111084, -0.184021, +0.195923, +0.305603, +21.621704, +99.594116, -32.989502
1494288454.111358, 1494288454.113827, -0.184021, +0.195923, +0.305603, +17.166138, +109.664917, -44.433594
1494288454.114303, 1494288454.116734, -0.184021, +0.195923, +0.305603, +17.166138, +109.664917, -44.433594
1494288454.117008, 1494288454.119577, -0.184021, +0.195923, +0.258728, +14.236450, +119.613647, -51.727295
1494288454.119854, 1494288454.122284, -0.293335, +0.039001, +0.246826, +14.236450, +119.613647, -51.727295
1494288454.122559, 1494288454.124982, -0.293335, +0.039001, +0.246826, +11.596680, +129.058838, -55.221558
1494288454.125259, 1494288454.127689, -0.293335, +0.039001, +0.246826, +11.596680, +129.058838, -55.221558
1494288454.128005, 1494288454.130303, -0.293335, -0.013184, +0.110779, +9.689331, +136.764526, -55.908203
1494288454.130569, 1494288454.132868, -0.181824, -0.013184, +0.110779, +9.689331, +136.764526, -55.908203
1494288454.133134, 1494288454.135442, -0.181824, -0.013184, +0.110779, +7.583618, +142.440796, -55.267334
1494288454.135707, 1494288454.138034, -0.181824, -0.013184, +0.110779, +7.583618, +142.440796, -55.267334
1494288454.138308, 1494288454.140735, +0.005676, +0.019958, +0.055298, +4.867554, +147.644043, -53.512573
1494288454.141009, 1494288454.143440, +0.022522, +0.019958, +0.055298, +4.867554, +147.644043, -53.512573
1494288454.143712, 1494288454.146136, +0.022522, +0.019958, +0.055298, +2.182007, +154.998779, -52.078247
1494288454.146408, 1494288454.148798, +0.022522, +0.019958, +0.055298, +2.182007, +154.998779, -52.078247
1494288454.149062, 1494288454.151363, +0.098145, +0.067566, -0.057312, +1.434326, +160.293579, -52.322388
1494288454.151626, 1494288454.153924, +0.098145, +0.067566, -0.057312, +1.434326, +160.293579, -52.322388
1494288454.154188, 1494288454.156494, +0.098145, +0.067566, -0.057312, +3.143311, +156.875610, -54.519653
1494288454.156758, 1494288454.159106, +0.098145, +0.067566, -0.057312, +3.143311, +156.875610, -54.519653
1494288454.159370, 1494288454.161671, -0.257446, +0.171021, -0.091370, +6.378174, +146.438599, -55.862427
1494288454.161936, 1494288454.164239, -0.257446, +0.171021, -0.091370, +6.378174, +146.438599, -55.862427
1494288454.164504, 1494288454.166804, -0.257446, +0.171021, -0.091370, +3.433228, +114.288330, -53.176880
1494288454.167071, 1494288454.169489, -0.257446, +0.171021, -0.091370, +3.433228, +114.288330, -53.176880
1494288454.169756, 1494288454.172056, -2.879150, -0.164429, -0.642517, +4.867554, +40.466309, -41.931152
1494288454.172320, 1494288454.174621, -2.879150, -0.164429, -0.642517, +4.867554, +40.466309, -41.931152
1494288454.174883, 1494288454.177190, -2.879150, -0.164429, -0.642517, +19.790649, +33.950806, -55.404663
1494288454.177453, 1494288454.179864, -2.879150, -0.164429, -0.642517, +19.790649, +33.950806, -55.404663
1494288454.180238, 1494288454.182538, -2.483093, +0.791199, +1.638794, -26.763916, +16.403198, -48.248291
1494288454.182803, 1494288454.185108, -2.483093, +0.791199, +1.638794, -26.763916, +16.403198, -48.248291
1494288454.185372, 1494288454.187670, -2.483093, +0.791199, +1.638794, -69.595337, +9.048462, -43.380737
1494288454.187997, 1494288454.190429, -2.483093, +0.791199, +1.638794, -69.595337, +9.048462, -43.380737
1494288454.190701, 1494288454.193128, -3.798523, +1.337219, +1.268188, -69.854736, +84.426880, -76.400757
1494288454.193400, 1494288454.195828, -3.798523, +1.337219, +1.268188, -69.854736, +84.426880, -76.400757
1494288454.196100, 1494288454.198575, -3.798523, +1.337219, +1.268188, -74.356079, +118.286133, -125.671387
1494288454.198847, 1494288454.201271, -3.798523, +3.132935, +0.695068, -74.356079, +118.286133, -125.671387
1494288454.201545, 1494288454.203970, -3.839539, +3.132935, +0.695068, -81.970215, +86.318970, -122.482300
1494288454.204244, 1494288454.206668, -3.839539, +3.132935, +0.695068, -81.970215, +86.318970, -83.419800
1494288454.206942, 1494288454.209293, -3.839539, +3.132935, +0.695068, -82.977295, -60.165405, -84.152222
1494288454.209560, 1494288454.211861, +4.168396, +2.282593, -1.913452, -82.977295, -60.165405, -84.152222
1494288454.212126, 1494288454.214423, +4.168396, +2.282593, -1.913452, -18.463135, -64.346313, -46.096802
1494288454.214685, 1494288454.216985, +4.168396, +2.282593, -1.913452, -18.463135, -64.346313, -46.096802
1494288454.217249, 1494288454.219659, +4.168396, +2.282593, -1.913452, -1.312256, +11.871338, -52.780151
1494288454.219921, 1494288454.222222, +3.636475, +2.278381, -2.165222, -1.312256, +11.871338, -52.780151
1494288454.222481, 1494288454.224783, +3.636475, +2.278381, -2.165222, -58.990479, +7.446289, -44.830322
1494288454.225046, 1494288454.227344, +3.636475, +2.278381, -2.165222, -58.990479, +7.446289, -44.830322
1494288454.227605, 1494288454.230102, +3.636475, +2.278381, -2.165222, -42.831421, +19.714355, -30.822754
1494288454.230373, 1494288454.232758, +0.188599, +0.304504, -0.813904, -42.831421, +19.714355, -30.822754
1494288454.233047, 1494288454.235670, +0.188599, +0.304504, -0.813904, -19.592285, +32.836914, -21.041870
1494288454.235943, 1494288454.238492, +0.188599, +0.304504, -0.813904, -19.592285, +32.836914, -23.254395
1494288454.238769, 1494288454.241207, +0.188599, +0.304504, -0.813904, -23.681641, +31.265259, -23.254395
1494288454.241482, 1494288454.243910, -0.739929, +0.664856, +0.135681, -23.681641, +31.265259, -27.709961
1494288454.244183, 1494288454.246613, -0.739929, +0.664856, +0.135681, -28.488159, +18.173218, -27.709961
1494288454.246886, 1494288454.249353, -0.739929, +0.664856, +0.135681, -28.488159, +2.548218, -29.403687
1494288454.249624, 1494288454.252049, -0.739929, +0.933289, +0.071045, -23.849487, +0.961304, -29.403687
1494288454.252322, 1494288454.254749, +0.294067, +0.933289, +0.071045, -23.849487, -3.707886, -20.080566
1494288454.255022, 1494288454.257447, +0.294067, +0.933289, +0.071045, -13.336182, -3.707886, -20.080566
1494288454.257758, 1494288454.260185, +0.294067, +0.933289, +0.071045, -1.617432, +10.635376, -15.258789
1494288454.260459, 1494288454.262886, +1.188721, +0.942993, -0.474060, -3.402710, +10.635376, -15.258789
1494288454.263157, 1494288454.265585, +1.188721, +0.942993, -0.474060, +3.112793, +17.623901, -11.383057
1494288454.265854, 1494288454.268267, +1.188721, +0.942993, -0.474060, +3.112793, +17.623901, -11.383057
1494288454.268533, 1494288454.270833, +1.188721, +0.942993, -0.474060, +17.532349, +29.205322, +9.811401
1494288454.271096, 1494288454.273394, +1.318359, +2.083923, -1.203552, +17.532349, +29.205322, +9.811401
1494288454.273653, 1494288454.275960, +1.318359, +2.083923, -1.203552, +21.438599, +54.840088, +25.756836
1494288454.276224, 1494288454.278565, +1.318359, +2.083923, -1.203552, +22.262573, +54.840088, +25.756836
1494288454.278827, 1494288454.281126, +1.318359, +2.083923, -1.203552, -16.799927, +59.295654, +10.681152
1494288454.281389, 1494288454.283692, +0.565979, +4.784180, +0.630432, -16.815186, +59.295654, +10.681152
1494288454.284071, 1494288454.286373, +0.565979, +4.784180, +0.630432, -44.158936, +83.389282, -8.468628
1494288454.286638, 1494288454.289039, +0.565979, +4.784180, +0.630432, -46.844482, +83.389282, -8.468628
1494288454.289303, 1494288454.291601, +0.565979, +4.784180, +0.630432, -46.844482, +81.405640, -24.612427
1494288454.291868, 1494288454.294164, +0.741211, +4.007446, +0.198303, -31.051636, +81.405640, -24.612427
1494288454.294431, 1494288454.296732, +0.741211, +4.007446, +0.198303, -31.051636, +57.968140, -31.265259
1494288454.296997, 1494288454.299504, +0.741211, +4.007446, +0.198303, -16.082764, +56.518555, -31.265259
1494288454.299779, 1494288454.302204, +0.741211, +4.007446, +0.057678, -0.457764, +65.795898, -38.696289
1494288454.302477, 1494288454.304906, +0.801453, +1.099182, +0.049622, -0.167847, +65.795898, -38.696289
1494288454.305179, 1494288454.307599, +0.801453, +1.099182, +0.049622, +3.738403, +69.183350, -32.989502
1494288454.307879, 1494288454.310307, +0.801453, +1.099182, +0.049622, +2.548218, +69.183350, -32.989502
1494288454.310578, 1494288454.313005, +0.801453, +1.100098, +0.434692, +2.548218, +60.928345, -29.693604
1494288454.313276, 1494288454.315695, -0.502625, +1.100098, +0.434692, +2.548218, +60.928345, -29.693604
1494288454.315966, 1494288454.318380, -0.502625, +1.100098, +0.434692, +3.753662, +45.883179, -29.693604
1494288454.318643, 1494288454.320942, -0.502625, +1.100098, +0.434692, +3.753662, +45.883179, -29.693604
1494288454.321206, 1494288454.323503, -0.643250, +0.973938, +0.045959, +8.361816, +27.481079, -26.092529
1494288454.323770, 1494288454.326072, -0.643250, +0.973938, +0.045959, +8.361816, +27.481079, -26.092529
1494288454.326338, 1494288454.328646, -0.643250, +0.973938, +0.045959, +15.197754, +18.859863, -18.768311
1494288454.328914, 1494288454.331216, -0.643250, +0.973938, +0.045959, +15.197754, +18.859863, -18.768311
1494288454.331481, 1494288454.333781, -0.515808, +0.725098, -0.166992, +23.010254, +14.755249, -8.331299
1494288454.334045, 1494288454.336346, -0.515808, +0.725098, -0.166992, +19.592285, +14.755249, -8.331299
1494288454.336609, 1494288454.338976, -0.515808, +0.725098, -0.166992, +19.592285, +10.467529, +3.189087
1494288454.339238, 1494288454.341531, -0.515808, +0.725098, -0.166992, +19.958496, +10.467529, +3.189087
1494288454.341795, 1494288454.344085, -0.694519, +0.810791, -0.078918, +19.958496, +5.264282, +15.213013
1494288454.344349, 1494288454.346649, -0.694519, +0.810791, -0.078918, +18.447876, +5.264282, +15.213013
1494288454.346913, 1494288454.349219, -0.694519, +0.810791, -0.078918, +18.447876, -6.454468, +26.046753
1494288454.349483, 1494288454.351782, -0.694519, +0.810791, -0.078918, +17.944336, -5.233765, +26.046753
1494288454.352045, 1494288454.354531, -0.642517, +0.743774, -0.096863, +17.944336, -5.233765, +35.263062
1494288454.354798, 1494288454.357094, -0.642517, +0.743774, -0.096863, +18.768311, -16.876221, +35.263062
1494288454.357363, 1494288454.359948, -0.642517, +0.743774, -0.096863, +18.768311, -26.016235, +43.807983
1494288454.360219, 1494288454.362513, -0.642517, +0.743774, -0.096863, +19.989014, -26.016235, +43.807983
1494288454.362781, 1494288454.365077, -0.353210, +0.807312, -0.140625, +19.989014, -29.922485, +49.758911
1494288454.365343, 1494288454.367638, -0.353210, +0.807312, -0.140625, +21.316528, -30.487061, +49.758911
1494288454.367961, 1494288454.370256, -0.353210, +0.807312, -0.140625, +21.316528, -30.487061, +52.154541
1494288454.370523, 1494288454.372822, -0.353210, +0.807312, -0.140625, +20.080566, -29.891968, +52.154541
1494288454.373089, 1494288454.375380, -0.260010, +1.025391, -0.034973, +20.080566, -29.891968, +52.154541
1494288454.375647, 1494288454.377986, -0.260010, +1.025391, -0.034973, +18.371582, -27.709961, +52.154541
1494288454.378252, 1494288454.380554, -0.260010, +1.025391, -0.034973, +18.371582, -27.709961, +51.589966
1494288454.380822, 1494288454.383120, -0.260010, +1.025391, -0.034973, +16.769409, -25.085449, +51.589966
1494288454.383386, 1494288454.385686, -0.098328, +1.131958, -0.053284, +16.769409, -25.085449, +49.682617
1494288454.386057, 1494288454.388375, -0.098328, +1.131958, -0.053284, +17.074585, -20.706177, +49.682617
1494288454.388642, 1494288454.390936, -0.098328, +1.131958, -0.053284, +17.074585, -20.706177, +46.676636
1494288454.391203, 1494288454.393504, -0.098328, +1.131958, -0.053284, +18.341064, -15.426636, +46.676636
1494288454.393771, 1494288454.396071, +0.116821, +1.108337, -0.093567, +18.341064, -15.426636, +42.770386
1494288454.396338, 1494288454.398639, +0.116821, +1.108337, -0.093567, +19.744873, -8.316040, +42.694092
1494288454.398904, 1494288454.401210, +0.116821, +1.108337, -0.093567, +19.744873, -8.316040, +42.694092
1494288454.401475, 1494288454.403771, +0.116821, +1.108337, -0.140442, +20.156860, +1.678467, +39.047241
1494288454.404035, 1494288454.406341, +0.243530, +1.022095, -0.116089, +20.156860, +1.678467, +39.047241
1494288454.406605, 1494288454.409052, +0.243530, +1.022095, -0.116089, +20.202637, +12.542725, +35.522461
1494288454.409320, 1494288454.411614, +0.243530, +1.022095, -0.116089, +20.202637, +12.542725, +35.522461
1494288454.411882, 1494288454.414186, +0.243530, +1.022095, -0.189331, +20.416260, +20.660400, +32.394409
1494288454.414451, 1494288454.416747, +0.104736, +0.999023, -0.189331, +20.416260, +20.660400, +32.394409
1494288454.417013, 1494288454.419424, +0.104736, +0.999023, -0.189331, +20.004272, +24.597168, +29.113770
1494288454.419693, 1494288454.421997, +0.104736, +0.999023, -0.189331, +20.004272, +24.597168, +29.113770
1494288454.422265, 1494288454.424562, +0.104736, +1.018616, -0.236023, +18.798828, +24.322510, +25.863647
1494288454.424829, 1494288454.427136, -0.111145, +1.018616, -0.236023, +18.798828, +24.322510, +25.863647
1494288454.427402, 1494288454.429824, -0.111145, +1.018616, -0.236023, +17.196655, +20.401001, +23.635864
1494288454.430098, 1494288454.432530, -0.111145, +1.018616, -0.236023, +17.196655, +20.401001, +23.635864
1494288454.432805, 1494288454.435231, -0.204895, +1.013489, -0.256165, +14.511108, +12.817383, +22.872925
1494288454.435503, 1494288454.437971, -0.215515, +1.013489, -0.256165, +14.511108, +12.817383, +22.872925
1494288454.438246, 1494288454.440671, -0.215515, +1.013489, -0.256165, +12.634277, +4.531860, +23.193359
1494288454.440943, 1494288454.443374, -0.215515, +1.013489, -0.256165, +12.634277, +4.531860, +27.099609
1494288454.443644, 1494288454.446070, -0.174683, +0.927795, -0.225769, +10.711670, -3.356934, +23.529053
1494288454.446342, 1494288454.448790, -0.174683, +0.927795, -0.225769, +10.711670, -3.356934, +23.529053
1494288454.449061, 1494288454.451485, -0.174683, +0.927795, -0.225769, +8.422852, -10.345459, +23.544312
1494288454.451758, 1494288454.454181, -0.174683, +0.927795, -0.225769, +8.422852, -10.345459, +23.574829
1494288454.454454, 1494288454.456882, -0.125977, +0.891357, -0.206177, +6.866455, -15.457153, +23.574829
1494288454.457153, 1494288454.459592, -0.125977, +0.891357, -0.206177, +6.866455, -15.457153, +22.430420
1494288454.459865, 1494288454.462291, -0.125977, +0.891357, -0.206177, +5.554199, -18.829346, +22.430420
1494288454.462562, 1494288454.464993, -0.125977, +0.891357, -0.184937, +5.554199, -22.735596, +20.706177
1494288454.465264, 1494288454.467686, -0.089722, +0.928162, -0.184937, +4.043579, -20.233154, +20.706177
1494288454.468000, 1494288454.470303, -0.089722, +0.928162, -0.184937, +4.043579, -16.326904, +19.012451
1494288454.470570, 1494288454.472866, -0.089722, +0.928162, -0.184937, +2.410889, -18.707275, +19.012451
1494288454.473132, 1494288454.475620, -0.089722, +0.976135, -0.196106, +2.410889, -15.274048, +16.830444
1494288454.475887, 1494288454.478429, -0.000366, +0.976135, -0.196106, +1.083374, -15.274048, +16.830444
1494288454.478703, 1494288454.481131, -0.000366, +0.976135, -0.196106, +1.083374, -10.101318, +15.014648
1494288454.481403, 1494288454.483829, -0.000366, +0.976135, -0.196106, +0.610352, -10.101318, +15.014648
1494288454.484100, 1494288454.486519, +0.022339, +1.026672, -0.163330, +0.137329, -4.669189, +12.634277
1494288454.486889, 1494288454.489357, +0.022339, +1.026672, -0.163330, +0.137329, -4.669189, +12.634277
1494288454.489626, 1494288454.492054, +0.022339, +1.026672, -0.163330, -0.671387, +0.335693, +10.269165
1494288454.492322, 1494288454.494743, +0.022339, +1.026672, -0.163330, -0.671387, +0.335693, +10.269165
1494288454.495011, 1494288454.497433, +0.080383, +1.047913, -0.176697, -1.174927, +5.203247, +7.949829
1494288454.497699, 1494288454.500167, +0.080383, +1.047913, -0.176697, -1.174927, +5.203247, +7.949829
1494288454.500431, 1494288454.502851, +0.080383, +1.047913, -0.176697, -0.900269, +10.223389, +6.256104
1494288454.503123, 1494288454.505548, +0.080383, +1.047913, -0.190796, -0.900269, +10.223389, +6.256104
1494288454.505817, 1494288454.508234, +0.050171, +1.022278, -0.190796, -0.839233, +15.396118, +4.180908
1494288454.508496, 1494288454.510798, +0.050171, +1.022278, -0.190796, -0.839233, +15.396118, +4.180908
1494288454.511059, 1494288454.513361, +0.050171, +1.022278, -0.190796, -1.266479, +19.332886, +2.822876
1494288454.513621, 1494288454.515914, +0.050171, +1.041687, -0.129822, -1.266479, +19.332886, +2.822876
1494288454.516174, 1494288454.518522, -0.032227, +1.041687, -0.129822, -1.861572, +21.820068, +1.419067
1494288454.518781, 1494288454.521086, -0.032227, +1.041687, -0.129822, -1.861572, +21.820068, +1.419067
1494288454.521346, 1494288454.523641, -0.032227, +1.041687, -0.129822, -2.349854, +22.033691, +0.122070
1494288454.523902, 1494288454.526207, -0.032227, +1.064209, -0.110046, -2.349854, +22.033691, +0.122070
1494288454.526471, 1494288454.528881, -0.099609, +1.064209, -0.110046, -3.158569, +21.316528, -0.885010
1494288454.529145, 1494288454.531442, -0.099609, +1.064209, -0.110046, -3.158569, +21.316528, -0.885010
1494288454.531707, 1494288454.534009, -0.099609, +1.064209, -0.110046, -3.814697, +19.241333, -1.937866
1494288454.534272, 1494288454.536567, -0.099609, +1.134521, -0.102905, -3.814697, +19.241333, -1.937866
1494288454.536829, 1494288454.539327, -0.098511, +1.134521, -0.102905, -4.913330, +15.945435, -2.746582
1494288454.539598, 1494288454.542032, -0.098511, +1.134521, -0.102905, -4.913330, +15.945435, -2.746582
1494288454.542300, 1494288454.544725, -0.098511, +1.134521, -0.102905, -5.844116, +12.130737, -3.158569
1494288454.544995, 1494288454.547424, -0.080750, +1.148071, -0.121216, -5.844116, +12.130737, -3.158569
1494288454.547693, 1494288454.550159, -0.080750, +1.148071, -0.121216, -5.859375, +8.880615, -3.906250
1494288454.550427, 1494288454.552853, -0.080750, +1.148071, -0.121216, -5.859375, +8.880615, -3.906250
1494288454.553118, 1494288454.555555, -0.080750, +1.148071, -0.121216, -6.393433, +6.362915, -4.867554
1494288454.555819, 1494288454.558253, -0.083862, +1.099182, -0.145752, -6.393433, +6.362915, -4.867554
1494288454.558519, 1494288454.560940, -0.083862, +1.099182, -0.145752, -6.805420, +3.814697, -5.554199
1494288454.561204, 1494288454.563632, -0.083862, +1.099182, -0.145752, -6.805420, +3.814697, -5.554199
1494288454.563898, 1494288454.566315, -0.083862, +1.099182, -0.146301, -7.308960, +1.541138, -6.118774
1494288454.566579, 1494288454.568960, -0.116455, +1.070068, -0.146301, -7.308960, +1.541138, -6.118774
1494288454.569217, 1494288454.571511, -0.116455, +1.070068, -0.146301, -7.934570, -0.442505, -6.347656
1494288454.571768, 1494288454.574066, -0.116455, +1.070068, -0.146301, -7.934570, -0.442505, -6.347656
1494288454.574323, 1494288454.576626, -0.116455, +1.070068, -0.132019, -7.904053, -1.998901, -6.698608
1494288454.576882, 1494288454.579238, -0.104187, +1.043152, -0.132019, -7.904053, -1.998901, -6.698608
1494288454.579495, 1494288454.581797, -0.104187, +1.043152, -0.132019, -8.102417, -2.792358, -7.278442
1494288454.582054, 1494288454.584355, -0.104187, +1.043152, -0.132019, -8.102417, -2.792358, -7.278442
1494288454.584612, 1494288454.586909, -0.104187, +1.043152, -0.136963, -8.178711, -3.402710, -7.522583
1494288454.587167, 1494288454.589612, -0.103821, +1.050110, -0.136963, -8.178711, -3.402710, -7.522583
1494288454.589878, 1494288454.592289, -0.103821, +1.050110, -0.136963, -8.499146, -4.257202, -8.087158
1494288454.592667, 1494288454.595294, -0.103821, +1.050110, -0.136963, -8.499146, -4.257202, -8.087158
1494288454.595561, 1494288454.597982, -0.115356, +1.082703, -0.134949, -8.926392, -5.813599, -9.582520
1494288454.598632, 1494288454.601058, -0.115356, +1.082703, -0.134949, -8.926392, -5.813599, -9.582520
1494288454.601327, 1494288454.603755, -0.115356, +1.082703, -0.134949, -9.414673, -7.080078, -10.498047
1494288454.604023, 1494288454.606445, -0.115356, +1.082703, -0.134949, -9.414673, -7.080078, -14.404297
1494288454.606715, 1494288454.609182, -0.109131, +1.076843, -0.143188, -9.597778, -7.568359, -12.542725
1494288454.609451, 1494288454.611885, -0.109131, +1.076843, -0.143188, -9.597778, -7.568359, -14.190674
1494288454.612153, 1494288454.614580, -0.109131, +1.076843, -0.143188, -9.078979, -6.469727, -14.190674
1494288454.614849, 1494288454.617278, -0.109131, +1.076843, -0.170471, -9.078979, -6.469727, -16.525269
1494288454.617547, 1494288454.619983, -0.059875, +1.070435, -0.170471, -9.643555, -4.318237, -16.525269
1494288454.620253, 1494288454.622675, -0.059875, +1.070435, -0.170471, -9.643555, -4.318237, -18.600464
1494288454.622944, 1494288454.625373, -0.059875, +1.070435, -0.170471, -10.604858, -3.387451, -18.600464
1494288454.625643, 1494288454.628058, +0.033875, +1.077026, -0.161133, -10.604858, -7.293701, -22.201538
1494288454.628322, 1494288454.630620, +0.002563, +1.077026, -0.161133, -11.810303, -4.272461, -22.201538
1494288454.630886, 1494288454.633188, +0.002563, +1.077026, -0.161133, -11.810303, -4.272461, -26.367188
1494288454.633452, 1494288454.635752, +0.002563, +1.077026, -0.161133, -12.771606, -5.401611, -26.367188
1494288454.636017, 1494288454.638372, +0.060791, +1.075378, -0.195740, -12.771606, -5.401611, -30.364990
1494288454.638637, 1494288454.640929, +0.060791, +1.075378, -0.195740, -14.480591, -5.081177, -30.364990
1494288454.641194, 1494288454.643495, +0.060791, +1.075378, -0.195740, -14.480591, -5.081177, -34.622192
1494288454.643760, 1494288454.646062, +0.060791, +1.075378, -0.195740, -16.845703, -3.356934, -34.622192
1494288454.646325, 1494288454.648684, +0.103088, +1.015320, -0.266235, -16.845703, -3.356934, -38.894653
1494288454.648948, 1494288454.651247, +0.103088, +1.015320, -0.266235, -18.630981, -0.350952, -38.894653
1494288454.651510, 1494288454.653810, +0.103088, +1.015320, -0.266235, -18.630981, -0.350952, -46.707153
1494288454.654074, 1494288454.656370, +0.103088, +1.015320, -0.266235, -18.798828, +2.319336, -43.563843
1494288454.656634, 1494288454.659107, +0.128357, +0.938965, -0.331970, -18.798828, +2.319336, -47.470093
1494288454.659379, 1494288454.661807, +0.128357, +0.938965, -0.331970, -19.897461, +4.974365, -47.241211
1494288454.662078, 1494288454.664508, +0.128357, +0.938965, -0.331970, -19.897461, +4.974365, -49.636841
1494288454.664781, 1494288454.667211, +0.128357, +0.938965, -0.331970, -22.399902, +6.393433, -49.636841
1494288454.667482, 1494288454.669796, -0.013367, +0.972656, -0.283264, -22.399902, +6.393433, -50.964355
1494288454.670060, 1494288454.672354, -0.013367, +0.972656, -0.283264, -26.123047, +7.110596, -50.964355
1494288454.672619, 1494288454.674923, -0.013367, +0.972656, -0.283264, -26.123047, +7.110596, -50.964355
1494288454.675186, 1494288454.677483, -0.013367, +0.972656, -0.283264, -29.373169, +3.524780, -51.422119
1494288454.677775, 1494288454.680209, -0.267883, +1.086548, -0.167725, -29.373169, +3.524780, -51.422119
1494288454.680479, 1494288454.682908, -0.267883, +1.086548, -0.167725, -31.982422, -4.608154, -53.726196
1494288454.683180, 1494288454.685607, -0.267883, +1.086548, -0.167725, -31.982422, -4.608154, -55.236816
1494288454.685878, 1494288454.688322, -0.267883, +1.086548, -0.076721, -35.461426, -14.434814, -55.236816
1494288454.688589, 1494288454.690885, -0.251953, +1.219116, -0.076721, -35.461426, -14.434814, -56.732178
1494288454.691151, 1494288454.693452, -0.251953, +1.219116, -0.076721, -38.146973, -23.025513, -56.732178
1494288454.693718, 1494288454.696022, -0.251953, +1.219116, -0.076721, -38.146973, -23.025513, -58.273315
1494288454.696396, 1494288454.698800, -0.251953, +1.310120, -0.064636, -41.076660, -30.090332, -58.273315
1494288454.699074, 1494288454.701473, -0.137512, +1.310120, -0.064636, -41.076660, -30.090332, -61.462402
1494288454.701747, 1494288454.704135, -0.137512, +1.310120, -0.064636, -44.387817, -33.386230, -61.462402
1494288454.704407, 1494288454.706798, -0.137512, +1.310120, -0.064636, -44.387817, -33.386230, -64.666748
1494288454.707070, 1494288454.709409, +0.083679, +1.244385, -0.078003, -47.439575, -34.103394, -64.666748
1494288454.709677, 1494288454.711976, +0.083679, +1.244385, -0.078003, -47.439575, -34.103394, -67.687988
1494288454.712241, 1494288454.714657, +0.083679, +1.244385, -0.078003, -49.118042, -31.234741, -67.687988
1494288454.714925, 1494288454.717225, +0.083679, +1.244385, -0.078003, -49.118042, -31.234741, -69.534302
1494288454.717492, 1494288454.720204, +0.119385, +1.045349, -0.174133, -49.545288, -26.245117, -69.534302
1494288454.720482, 1494288454.722912, +0.119385, +1.045349, -0.174133, -49.545288, -20.248413, -70.541382
1494288454.723185, 1494288454.725611, +0.119385, +1.045349, -0.174133, -48.889160, -20.248413, -70.541382
1494288454.725885, 1494288454.728351, +0.119385, +1.045349, -0.174133, -48.889160, -15.258789, -71.655273
1494288454.728625, 1494288454.731055, -0.125244, +1.172791, -0.049255, -50.186157, -15.258789, -71.655273
1494288454.731328, 1494288454.733749, -0.125244, +1.172791, -0.049255, -52.001953, -13.336182, -74.340820
1494288454.734023, 1494288454.736452, -0.125244, +1.172791, -0.049255, -52.001953, -13.336182, -74.340820
1494288454.736725, 1494288454.739927, -0.125244, +1.266541, +0.021790, -53.268433, -13.519287, -77.972412
1494288454.740203, 1494288454.742495, -0.217896, +1.286682, +0.021790, -53.268433, -13.519287, -77.972412
1494288454.742763, 1494288454.745060, -0.217896, +1.286682, +0.021790, -54.672241, -16.235352, -78.582764
1494288454.745327, 1494288454.747621, -0.217896, +1.286682, +0.021790, -54.672241, -16.235352, -78.582764
1494288454.747887, 1494288454.750181, -0.153625, +1.188538, +0.030212, -54.733276, -16.906738, -79.666138
1494288454.750449, 1494288454.752740, -0.153625, +1.188538, +0.030212, -54.733276, -16.906738, -79.666138
1494288454.753008, 1494288454.755301, -0.153625, +1.188538, +0.030212, -54.321289, -16.021729, -81.222534
1494288454.755569, 1494288454.757861, -0.153625, +1.188538, +0.030212, -54.321289, -16.021729, -81.222534
1494288454.758130, 1494288454.760427, -0.160583, +0.992615, +0.058960, -52.978516, -14.770508, -81.756592
1494288454.760696, 1494288454.762990, -0.160583, +0.992615, +0.058960, -52.978516, -14.770508, -81.756592
1494288454.763256, 1494288454.765547, -0.160583, +0.992615, +0.058960, -51.773071, -11.932373, -81.420898
1494288454.765814, 1494288454.768157, -0.160583, +0.992615, +0.058960, -51.773071, -11.932373, -81.420898
1494288454.768425, 1494288454.770723, -0.310364, +0.871216, +0.094116, -50.933838, -9.399414, -81.039429
1494288454.770989, 1494288454.773279, -0.310364, +0.871216, +0.094116, -50.933838, -9.399414, -81.039429
1494288454.773546, 1494288454.775835, -0.310364, +0.871216, +0.094116, -48.767090, -8.300781, -80.734253
1494288454.776100, 1494288454.778400, -0.310364, +0.871216, +0.094116, -48.767090, -8.300781, -80.734253
1494288454.778666, 1494288454.780962, -0.325562, +0.773804, +0.025085, -46.752930, -7.049561, -79.132080
1494288454.781227, 1494288454.783523, -0.325562, +0.773804, +0.025085, -46.752930, -7.049561, -79.132080
1494288454.783788, 1494288454.786085, -0.325562, +0.773804, +0.025085, -46.752930, -4.669189, -76.156616
1494288454.786349, 1494288454.789106, -0.325562, +0.773804, +0.025085, -44.906616, -4.669189, -76.156616
1494288454.792269, 1494288454.794577, -0.403748, +0.598755, -0.082581, -41.748047, -1.312256, -72.479248
1494288454.794851, 1494288454.797145, -0.403748, +0.598755, -0.082581, -36.300659, +1.251221, -68.542480
1494288454.797412, 1494288454.799717, -0.403748, +0.598755, -0.141541, -36.300659, +1.251221, -68.542480
1494288454.799982, 1494288454.802279, -0.696899, +0.371338, -0.141541, -30.120850, -0.305176, -63.201904
1494288454.802673, 1494288454.804966, -0.696899, +0.371338, -0.141541, -30.120850, -0.305176, -63.201904
1494288454.805231, 1494288454.807527, -0.696899, +0.371338, -0.141541, -24.337769, -6.347656, -57.647705
1494288454.807772, 1494288454.810067, -0.696899, +0.371338, -0.004211, -24.337769, -6.347656, -57.647705
1494288454.810332, 1494288454.812633, -0.822510, +0.457581, -0.004211, -21.377563, -13.916016, -51.437378
1494288454.812902, 1494288454.815194, -0.822510, +0.457581, -0.004211, -21.377563, -13.916016, -51.437378
1494288454.815464, 1494288454.817811, -0.822510, +0.457581, -0.004211, -17.471313, -20.462036, -43.167114
1494288454.818080, 1494288454.820369, -0.822510, +0.363831, +0.065918, -19.256592, -20.462036, -43.167114
1494288454.820636, 1494288454.822935, -0.532837, +0.365112, +0.065918, -19.256592, -22.659302, -34.271240
1494288454.823203, 1494288454.825501, -0.532837, +0.365112, +0.065918, -17.578125, -22.659302, -34.271240
1494288454.825768, 1494288454.828074, -0.532837, +0.365112, +0.065918, -17.578125, -20.538330, -24.154663
1494288454.828342, 1494288454.830642, -0.532837, +0.304688, +0.082397, -14.862061, -20.538330, -24.154663
1494288454.830911, 1494288454.833201, -0.613037, +0.304688, +0.082397, -14.862061, -16.632080, -13.671875
1494288454.833468, 1494288454.835767, -0.613037, +0.304688, +0.082397, -10.192871, -17.272949, -13.671875
1494288454.836033, 1494288454.838508, -0.613037, +0.304688, +0.082397, -10.192871, -17.272949, -3.677368
1494288454.838773, 1494288454.841072, -0.753662, +0.477539, +0.047791, -5.081177, -15.899658, -3.677368
1494288454.841334, 1494288454.843633, -0.790100, +0.477539, +0.047791, -5.081177, -15.899658, +5.035400
1494288454.843896, 1494288454.846194, -0.790100, +0.477539, +0.047791, +0.213623, -16.479492, +5.035400
1494288454.846456, 1494288454.848908, -0.790100, +0.477539, +0.047791, +0.213623, -16.479492, +14.068604
1494288454.849183, 1494288454.851609, -0.477356, +0.929260, +0.101257, +2.777100, -17.623901, +14.068604
1494288454.851883, 1494288454.854307, -0.477356, +0.929260, +0.101257, +2.777100, -13.656616, +25.207520
1494288454.854579, 1494288454.857003, -0.477356, +0.929260, +0.101257, +4.196167, -13.656616, +25.207520
1494288454.857274, 1494288454.859600, -0.477356, +0.929260, +0.101257, +4.196167, -6.546021, +35.644531
1494288454.859862, 1494288454.862170, -0.385437, +1.224609, +0.150330, +6.469727, -6.546021, +35.644531
1494288454.862432, 1494288454.864735, -0.385437, +1.224609, +0.150330, +6.469727, -2.639771, +44.342041
1494288454.864998, 1494288454.867296, -0.385437, +1.224609, +0.150330, +9.384155, -2.258301, +44.342041
1494288454.867558, 1494288454.870016, -0.385437, +1.224609, +0.150330, +9.384155, -2.258301, +52.047729
1494288454.870287, 1494288454.872710, -0.396423, +1.671387, +0.268799, +11.444092, -1.098633, +52.047729
1494288454.872980, 1494288454.875399, -0.396423, +1.671387, +0.268799, +11.444092, +1.617432, +59.280396
1494288454.875669, 1494288454.878139, -0.396423, +1.671387, +0.268799, +13.610840, +1.617432, +59.280396
1494288454.878412, 1494288454.880839, -0.396423, +1.671387, +0.315674, +13.610840, +8.743286, +63.598633
1494288454.881111, 1494288454.883533, -0.117554, +1.922791, +0.305603, +13.458252, +8.743286, +63.598633
1494288454.883807, 1494288454.886233, -0.117554, +1.922791, +0.305603, +12.832642, +17.028809, +67.169189
1494288454.886507, 1494288454.888978, -0.117554, +1.922791, +0.305603, +12.832642, +17.028809, +67.169189
1494288454.889252, 1494288454.891677, -0.117554, +2.094910, +0.250854, +13.427734, +23.620605, +70.571899
1494288454.891951, 1494288454.894379, -0.135315, +2.094910, +0.250854, +13.427734, +23.620605, +70.571899
1494288454.894654, 1494288454.897079, -0.135315, +2.094910, +0.250854, +16.113281, +29.830933, +71.273804
1494288454.897354, 1494288454.899797, -0.135315, +2.094910, +0.250854, +16.113281, +29.830933, +71.273804
1494288454.900072, 1494288454.902495, -0.189880, +2.468811, +0.177246, +20.507812, +33.248901, +68.878174
1494288454.902769, 1494288454.905211, -0.189880, +2.468811, +0.177246, +20.507812, +33.248901, +68.878174
1494288454.905598, 1494288454.908029, -0.189880, +2.468811, +0.177246, +22.918701, +29.937744, +66.375732
1494288454.908295, 1494288454.910594, -0.189880, +2.468811, +0.177246, +22.918701, +29.937744, +66.375732
1494288454.910859, 1494288454.913162, -0.096680, +2.603394, +0.215881, +26.580811, +25.894165, +66.482544
1494288454.913430, 1494288454.915727, -0.096680, +2.603394, +0.215881, +26.580811, +25.894165, +66.482544
1494288454.915994, 1494288454.918374, -0.096680, +2.603394, +0.215881, +31.829834, +20.797729, +70.648193
1494288454.918649, 1494288454.921073, -0.096680, +2.603394, +0.215881, +31.829834, +20.797729, +70.648193
1494288454.921346, 1494288454.923771, -0.044678, +2.341919, +0.213318, +37.277222, +14.373779, +77.117920
1494288454.924046, 1494288454.926467, -0.044678, +2.341919, +0.213318, +37.277222, +14.373779, +77.117920
1494288454.926742, 1494288454.929182, -0.044678, +2.341919, +0.213318, +44.830322, +7.263184, +82.656860
1494288454.929454, 1494288454.931874, -0.044678, +2.341919, +0.147949, +44.830322, +7.263184, +82.656860
1494288454.932145, 1494288454.934572, +0.094482, +2.163574, +0.147949, +51.589966, -4.974365, +91.522217
1494288454.934843, 1494288454.937268, +0.094482, +2.163574, +0.147949, +51.589966, -4.974365, +91.522217
1494288454.937539, 1494288454.939858, +0.094482, +2.163574, +0.147949, +58.166504, -24.658203, +100.479126
1494288454.940126, 1494288454.942430, +0.094482, +2.117249, -0.030762, +58.166504, -24.658203, +100.479126
1494288454.942696, 1494288454.944991, +0.441650, +2.117249, -0.030762, +63.980103, -49.118042, +110.778809
1494288454.945258, 1494288454.947558, +0.441650, +2.117249, -0.030762, +63.980103, -49.118042, +110.778809
1494288454.947891, 1494288454.950208, +0.441650, +2.117249, -0.030762, +71.105957, -68.817139, +120.895386
1494288454.950476, 1494288454.952775, +0.957275, +1.904114, -0.354309, +71.105957, -68.817139, +120.895386
1494288454.953042, 1494288454.955340, +0.969910, +1.904114, -0.354309, +78.918457, -81.512451, +136.184692
1494288454.955607, 1494288454.958064, +0.969910, +1.904114, -0.354309, +78.918457, -81.512451, +136.184692
1494288454.958333, 1494288454.960633, +0.969910, +1.904114, -0.354309, +82.366943, -89.874268, +152.374268
1494288454.960900, 1494288454.963198, +1.327698, +1.777405, -0.515808, +82.366943, -89.874268, +152.374268
1494288454.963464, 1494288454.965770, +1.327698, +1.777405, -0.515808, +83.709717, -91.781616, +156.738281
1494288454.966037, 1494288454.968401, +1.327698, +1.777405, -0.515808, +83.709717, -91.781616, +156.738281
1494288454.968675, 1494288454.971099, +1.327698, +1.777405, -0.515808, +86.608887, -84.167480, +149.185181
1494288454.971373, 1494288454.973800, +0.562134, +1.580200, -0.337097, +86.608887, -84.167480, +149.185181
1494288454.974075, 1494288454.976503, +0.562134, +1.580200, -0.337097, +85.494995, -70.083618, +141.067505
1494288454.976777, 1494288454.979213, +0.562134, +1.580200, -0.337097, +85.494995, -70.083618, +141.067505
1494288454.979489, 1494288454.981906, +0.562134, +1.580200, -0.337097, +84.686279, -56.396484, +128.738403
1494288454.982180, 1494288454.984610, -0.479553, +1.376770, +0.129272, +84.686279, -56.396484, +128.738403
1494288454.984883, 1494288454.987306, -0.479553, +1.376770, +0.129272, +77.468872, -43.365479, +114.486694
1494288454.987578, 1494288454.990013, -0.479553, +1.376770, +0.129272, +77.468872, -43.365479, +114.486694
1494288454.990286, 1494288454.992716, -0.479553, +1.376770, +0.583008, +63.842773, -48.049927, +102.493286
1494288454.992993, 1494288454.995472, -0.459778, +1.332825, +0.583008, +63.842773, -48.049927, +102.493286
1494288454.995739, 1494288454.998187, -0.459778, +1.332825, +0.583008, +46.691895, -39.810181, +98.144531
1494288454.998461, 1494288455.000844, -0.459778, +1.332825, +0.583008, +46.691895, -39.810181, +98.144531
1494288455.001116, 1494288455.003563, -0.459778, +1.105225, +0.294067, +34.317017, -16.174316, +88.958740
1494288455.003849, 1494288455.006252, -1.282654, +1.105225, +0.294067, +34.317017, -16.174316, +85.052490
1494288455.007043, 1494288455.009391, -1.282654, +1.105225, +0.294067, +22.323608, +3.112793, +82.595825
1494288455.009656, 1494288455.011958, -1.282654, +1.105225, +0.294067, +22.323608, -0.793457, +75.744629
1494288455.012222, 1494288455.014519, -1.668823, +0.365295, -0.404846, +13.504028, -2.441406, +75.744629
1494288455.014782, 1494288455.017085, -1.668823, +0.365295, -0.404846, +13.504028, -2.441406, +61.752319
1494288455.017348, 1494288455.019802, -1.668823, +0.365295, -0.404846, +14.785767, -27.633667, +61.752319
1494288455.020075, 1494288455.022501, -1.668823, +0.365295, -0.404846, +14.785767, -51.071167, +47.088623
1494288455.022776, 1494288455.025198, -1.586975, +0.263306, -0.691956, +19.607544, -52.001953, +47.088623
1494288455.025471, 1494288455.027959, -1.586975, +0.263306, -0.691956, +19.607544, -82.366943, +35.324097
1494288455.028233, 1494288455.030659, -1.586975, +0.263306, -0.691956, +20.858765, -82.366943, +35.324097
1494288455.030933, 1494288455.033354, -1.586975, +0.263306, -0.223755, +9.140015, -78.781128, +26.260376
1494288455.033627, 1494288455.036051, -1.595764, +0.307068, -0.223755, +9.216309, -78.781128, +26.260376
1494288455.036324, 1494288455.038708, -1.595764, +0.307068, -0.223755, -7.675171, -66.574097, +26.473999
1494288455.038974, 1494288455.041273, -1.595764, +0.307068, -0.223755, -7.675171, -66.574097, +26.473999
1494288455.041538, 1494288455.043836, -1.595764, +0.032776, -0.420227, -11.581421, -74.874878, +34.286499
1494288455.044103, 1494288455.046399, -0.837524, +0.032776, -0.420227, -8.682251, -74.874878, +34.286499
1494288455.046664, 1494288455.049054, -0.837524, +0.032776, -0.420227, +3.036499, -77.041626, +38.375854
1494288455.049319, 1494288455.051623, -0.837524, +0.032776, -0.420227, +0.549316, -77.041626, +38.375854
1494288455.051887, 1494288455.054189, -0.837524, +0.049072, -0.265503, +0.549316, -77.850342, +40.390015
1494288455.054453, 1494288455.056751, -0.243896, +0.049072, -0.265503, +9.429932, -77.850342, +40.390015
1494288455.057016, 1494288455.059425, -0.243896, +0.049072, -0.265503, +9.429932, -77.499390, +43.533325
1494288455.059692, 1494288455.061995, -0.243896, +0.049072, -0.265503, +12.527466, -77.499390, +43.533325
1494288455.062262, 1494288455.064566, -0.027649, +0.107666, -0.011353, +12.527466, -77.499390, +47.058105
1494288455.064834, 1494288455.067137, -0.027649, +0.107666, -0.011353, +12.710571, -74.600220, +47.058105
1494288455.067405, 1494288455.069835, -0.027649, +0.107666, -0.011353, +12.710571, -70.693970, +49.728394
1494288455.070111, 1494288455.072536, -0.027649, +0.107666, -0.011353, +12.176514, -70.373535, +49.728394
1494288455.072812, 1494288455.075241, -0.122864, -0.084229, +0.025085, +12.176514, -65.597534, +51.406860
1494288455.075516, 1494288455.077954, -0.122864, -0.084229, +0.025085, +12.664795, -65.597534, +51.406860
1494288455.078230, 1494288455.080652, -0.122864, -0.084229, +0.025085, +12.664795, -59.341431, +52.032471
1494288455.080927, 1494288455.083354, -0.122864, -0.084229, +0.025085, +13.275146, -59.341431, +52.032471
1494288455.083629, 1494288455.086057, -0.062439, -0.133850, +0.017395, +13.885498, -51.910400, +52.322388
1494288455.086333, 1494288455.088775, -0.062439, -0.133850, +0.017395, +13.885498, -51.910400, +52.322388
1494288455.089049, 1494288455.091471, -0.062439, -0.133850, +0.017395, +13.977051, -42.984009, +51.651001
1494288455.091746, 1494288455.094173, -0.062439, -0.133850, -0.023987, +13.977051, -42.984009, +51.651001
1494288455.094447, 1494288455.096869, +0.077087, -0.115540, -0.023987, +14.953613, -33.248901, +50.064087
1494288455.097143, 1494288455.099586, +0.077087, -0.115540, -0.023987, +14.953613, -33.248901, +50.064087
1494288455.099862, 1494288455.102291, +0.077087, -0.115540, -0.023987, +16.448975, -23.605347, +48.110962
1494288455.102567, 1494288455.104991, +0.077087, -0.134949, -0.044678, +16.448975, -23.605347, +48.110962
1494288455.105266, 1494288455.107693, +0.154175, -0.134949, -0.044678, +17.593384, -13.626099, +45.654297
1494288455.108004, 1494288455.110306, +0.154175, -0.134949, -0.044678, +17.593384, -13.626099, +45.654297
1494288455.110681, 1494288455.112984, +0.154175, -0.134949, -0.044678, +18.173218, -4.837036, +41.824341
1494288455.113248, 1494288455.115787, +0.126709, -0.080750, -0.069031, +18.173218, -4.837036, +41.824341
1494288455.116055, 1494288455.118622, +0.126709, -0.080750, -0.069031, +19.515991, +2.899170, +37.200928
1494288455.118899, 1494288455.121329, +0.126709, -0.080750, -0.069031, +19.515991, +2.899170, +37.200928
1494288455.121603, 1494288455.124035, +0.126709, -0.080750, -0.069031, +19.683838, +9.292603, +32.379150
1494288455.124308, 1494288455.126736, +0.102173, +0.007690, -0.062439, +19.683838, +9.292603, +32.379150
1494288455.127009, 1494288455.129444, +0.102173, +0.007690, -0.062439, +17.578125, +15.914917, +28.030396
1494288455.129720, 1494288455.132148, +0.102173, +0.007690, -0.062439, +17.578125, +15.914917, +28.030396
1494288455.132424, 1494288455.134844, +0.102173, +0.007690, -0.090271, +16.479492, +24.291992, +23.437500
1494288455.135120, 1494288455.137547, +0.115540, +0.056580, -0.090271, +16.479492, +24.291992, +23.437500
1494288455.137831, 1494288455.140254, +0.115540, +0.056580, -0.090271, +17.166138, +32.684326, +19.027710
1494288455.140528, 1494288455.142955, +0.115540, +0.056580, -0.090271, +17.166138, +32.684326, +15.121460
1494288455.143231, 1494288455.145658, +0.115540, +0.072693, -0.140991, +18.997192, +40.695190, +13.824463
1494288455.145934, 1494288455.148345, +0.121399, +0.072693, -0.140991, +18.997192, +40.695190, +9.445190
1494288455.148610, 1494288455.150910, +0.121399, +0.072693, -0.140991, +20.217896, +47.943115, +9.445190
1494288455.151175, 1494288455.153474, +0.121399, +0.072693, -0.140991, +20.217896, +47.943115, +1.632690
1494288455.153739, 1494288455.156039, +0.121033, +0.087158, -0.214417, +20.446777, +52.337646, +3.738403
1494288455.156304, 1494288455.158613, +0.121033, +0.087158, -0.214417, +20.446777, +52.337646, -0.167847
1494288455.158878, 1494288455.161180, +0.121033, +0.087158, -0.214417, +18.676758, +52.597046, -1.846313
1494288455.161446, 1494288455.163744, +0.121033, +0.087158, -0.214417, +18.676758, +52.597046, -1.846313
1494288455.164010, 1494288455.166312, +0.244995, +0.034058, -0.130554, +16.067505, +53.573608, -5.813599
1494288455.166576, 1494288455.169040, +0.244995, +0.034058, -0.130554, +16.067505, +53.573608, -5.813599
1494288455.169304, 1494288455.171607, +0.244995, +0.034058, -0.130554, +14.556885, +56.869507, -8.224487
1494288455.171872, 1494288455.174175, +0.244995, +0.034058, -0.130554, +14.556885, +56.869507, -8.224487
1494288455.174440, 1494288455.176742, +0.290588, +0.064270, +0.039368, +14.572144, +63.034058, -11.154175
1494288455.177011, 1494288455.179508, +0.290588, +0.064270, +0.039368, +14.572144, +63.034058, -11.154175
1494288455.179785, 1494288455.182211, +0.290588, +0.064270, +0.039368, +16.647339, +70.968628, -17.227173
1494288455.182484, 1494288455.184909, +0.290588, +0.064270, +0.039368, +16.647339, +70.968628, -17.227173
1494288455.185183, 1494288455.187609, -0.201416, +0.152893, +0.238770, +17.684937, +75.576782, -26.977539
1494288455.187887, 1494288455.190310, -0.201416, +0.152893, +0.238770, +17.684937, +75.576782, -38.696289
1494288455.190585, 1494288455.193008, -0.201416, +0.152893, +0.238770, +13.107300, +75.164795, -37.170410
1494288455.193283, 1494288455.195711, -0.201416, +0.152893, +0.364380, +13.107300, +75.164795, -44.097900
1494288455.195986, 1494288455.198426, -0.685181, +0.261292, +0.364380, +3.280640, +70.007324, -44.097900
1494288455.198699, 1494288455.201131, -0.685181, +0.261292, +0.364380, +3.280640, +70.007324, -46.905518
1494288455.201405, 1494288455.203838, -0.685181, +0.261292, +0.364380, -6.744385, +61.172485, -46.905518
1494288455.204110, 1494288455.206535, -0.685181, +0.197205, +0.288757, -6.744385, +53.359985, -48.980713
1494288455.206806, 1494288455.209173, -0.604614, +0.197205, +0.288757, -13.473511, +54.122925, -48.980713
1494288455.209439, 1494288455.211746, -0.604614, +0.197205, +0.288757, -13.473511, +54.122925, -52.398682
1494288455.212012, 1494288455.214313, -0.604614, +0.197205, +0.288757, -16.693115, +53.695679, -52.398682
1494288455.214687, 1494288455.216993, -0.178894, +0.226685, +0.261108, -16.693115, +61.508179, -56.991577
1494288455.217260, 1494288455.219673, -0.178894, +0.226685, +0.261108, -14.938354, +60.897827, -56.991577
1494288455.219947, 1494288455.222375, -0.178894, +0.226685, +0.261108, -14.938354, +68.710327, -64.926147
1494288455.222650, 1494288455.225078, -0.178894, +0.226685, +0.261108, -11.779785, +68.054199, -64.926147
1494288455.225354, 1494288455.227793, -0.784058, +0.307251, +0.098511, -11.779785, +62.774658, -70.831299
1494288455.228068, 1494288455.230493, -0.784058, +0.307251, +0.098511, -12.100220, +62.774658, -70.831299
1494288455.230770, 1494288455.233186, -0.784058, +0.307251, +0.098511, -16.006470, +50.582886, -72.738647
1494288455.233461, 1494288455.235924, -0.784058, +0.307251, +0.098511, -18.356323, +50.582886, -72.738647
1494288455.236198, 1494288455.239034, -3.934753, +0.495483, +0.542542, -29.632568, +46.997070, -100.860596
1494288455.239309, 1494288455.241734, -3.934753, +0.495483, +0.542542, -29.632568, +46.997070, -100.860596
1494288455.242008, 1494288455.244430, -3.934753, +0.495483, +0.542542, -109.481812, +72.937012, -153.244019
1494288455.244704, 1494288455.247128, -3.934753, +3.611206, +1.953735, -109.481812, +72.937012, -153.244019
1494288455.247400, 1494288455.249835, -5.716003, +3.611206, +1.953735, -122.665405, +171.371460, -182.464600
1494288455.250107, 1494288455.252534, -5.716003, +3.611206, +1.953735, -122.665405, +171.371460, -182.464600
1494288455.252807, 1494288455.255232, -5.716003, +3.611206, +1.953735, -79.269409, +114.028931, -163.391113
1494288455.255504, 1494288455.257967, +2.081543, +2.318481, -1.329895, -79.269409, +114.028931, -163.391113
1494288455.258231, 1494288455.260533, +2.081543, +2.318481, -1.329895, -45.181274, -66.497803, -128.143311
1494288455.260796, 1494288455.263092, +2.081543, +2.318481, -1.329895, -45.181274, -66.497803, -128.143311
1494288455.263355, 1494288455.265656, +2.081543, +2.318481, -1.329895, -10.971069, -47.363281, -82.199097
1494288455.265919, 1494288455.268231, +5.626099, +3.879089, -3.150146, -10.971069, -47.363281, -82.199097
1494288455.268495, 1494288455.270802, +5.626099, +3.879089, -3.150146, -43.197632, +26.184082, -56.823730
1494288455.271063, 1494288455.273364, +5.626099, +3.879089, -3.150146, -43.197632, +26.184082, -56.823730
1494288455.273627, 1494288455.275927, +5.626099, +3.879089, -3.150146, -105.102539, +24.337769, -36.437988
1494288455.276189, 1494288455.278544, +1.751770, +0.625488, -1.808350, -105.102539, +24.337769, -36.437988
1494288455.278810, 1494288455.281115, +1.751770, +0.625488, -1.808350, -74.584961, +0.839233, -7.415771
1494288455.281377, 1494288455.283677, +1.751770, +0.625488, -1.808350, -74.584961, +0.839233, -7.415771
1494288455.283938, 1494288455.286232, +1.751770, +0.625488, -1.808350, -24.475098, -15.060425, -10.360718
1494288455.286497, 1494288455.288893, -1.410095, -0.483765, -0.264404, -24.475098, -15.060425, -10.360718
1494288455.289159, 1494288455.291468, -1.410095, -0.483765, -0.264404, -17.974854, +21.026611, -53.070068
1494288455.291734, 1494288455.294042, -1.410095, -0.483765, -0.264404, -17.974854, +21.026611, -53.070068
1494288455.294309, 1494288455.296612, -1.410095, -0.483765, -0.264404, -43.106079, +10.284424, -73.089600
1494288455.296878, 1494288455.299362, +0.686829, +2.459473, +0.255981, -43.106079, +10.284424, -73.089600
1494288455.299637, 1494288455.302067, +0.686829, +2.459473, +0.255981, -53.558350, -44.097900, -44.830322
1494288455.302340, 1494288455.304762, +0.686829, +2.459473, +0.255981, -53.558350, -44.097900, -44.830322
1494288455.305038, 1494288455.307463, +0.686829, +2.459473, +0.426453, -50.918579, -39.764404, -16.052246
1494288455.307745, 1494288455.310040, +0.683899, +2.819641, +0.426453, -50.918579, -39.764404, -16.052246
1494288455.310307, 1494288455.312604, +0.683899, +2.819641, +0.426453, -52.307129, -4.821777, -13.763428
1494288455.312868, 1494288455.315171, +0.683899, +2.819641, +0.426453, -52.307129, -4.821777, -13.763428
1494288455.315542, 1494288455.317856, +0.683899, +3.475891, +1.465210, -53.405762, +27.099609, -18.234253
1494288455.318129, 1494288455.320551, +0.902527, +3.469666, +1.465210, -53.405762, +27.099609, -18.234253
1494288455.320825, 1494288455.323253, +0.902527, +3.469666, +1.465210, -53.161621, +29.556274, -15.792847
1494288455.323527, 1494288455.325950, +0.902527, +3.469666, +1.465210, -53.161621, +29.556274, -15.792847
1494288455.326222, 1494288455.328617, +0.679504, +3.390198, +0.758789, -37.918091, +41.061401, -28.594971
1494288455.328885, 1494288455.331183, +0.679504, +3.390198, +0.758789, -37.918091, +41.061401, -28.594971
1494288455.331448, 1494288455.333748, +0.679504, +3.390198, +0.758789, -19.515991, +55.282593, -46.005249
1494288455.334012, 1494288455.336316, +0.679504, +3.390198, +0.758789, -19.515991, +55.282593, -46.005249
1494288455.336582, 1494288455.339004, +0.258179, +1.456421, -0.392395, -3.921509, +60.562134, -48.477173
1494288455.339274, 1494288455.341703, +0.258179, +1.456421, -0.392395, -3.921509, +60.562134, -48.477173
1494288455.341974, 1494288455.344400, +0.258179, +1.456421, -0.392395, +8.865356, +56.579590, -41.519165
1494288455.344673, 1494288455.347095, +0.258179, +1.456421, -0.392395, +8.865356, +56.579590, -41.519165
1494288455.347367, 1494288455.349812, -0.752380, +0.840088, -0.198303, +18.356323, +45.639038, -32.653809
1494288455.350085, 1494288455.352508, -0.752380, +0.840088, -0.198303, +18.356323, +45.639038, -32.653809
1494288455.352783, 1494288455.355253, -0.752380, +0.840088, -0.198303, +22.613525, +31.692505, -22.399902
1494288455.355528, 1494288455.357948, -0.752380, +0.840088, +0.223572, +22.613525, +31.692505, -22.399902
1494288455.358545, 1494288455.360850, -0.714844, +0.971008, +0.218628, +28.259277, +11.749268, -11.260986
1494288455.361118, 1494288455.363420, -0.714844, +0.971008, +0.218628, +28.259277, +11.749268, -11.260986
1494288455.363684, 1494288455.365980, -0.714844, +0.971008, +0.218628, +34.255981, -0.030518, +2.273560
1494288455.366242, 1494288455.368603, -0.714844, +0.783508, +0.275208, +34.255981, -0.030518, +2.273560
1494288455.368873, 1494288455.371310, -0.390564, +0.770142, +0.275208, +41.076660, -2.441406, +16.342163
1494288455.371583, 1494288455.374010, -0.390564, +0.770142, +0.275208, +41.076660, -2.441406, +16.342163
1494288455.374281, 1494288455.376700, -0.390564, +0.770142, +0.275208, +44.876099, -0.122070, +30.288696
1494288455.376973, 1494288455.379415, -0.531921, +0.810425, +0.152893, +44.876099, -0.122070, +30.288696
1494288455.379689, 1494288455.382114, -0.531921, +0.810425, +0.152893, +46.279907, +0.015259, +42.205811
1494288455.382387, 1494288455.384812, -0.531921, +0.810425, +0.152893, +46.279907, +0.015259, +53.924561
1494288455.385084, 1494288455.387510, -0.531921, +0.810425, +0.152893, +45.974731, -4.547119, +51.757812
1494288455.387790, 1494288455.390089, -0.695618, +0.895752, +0.037537, +45.974731, -4.547119, +59.570312
1494288455.390354, 1494288455.392654, -0.695618, +0.895752, +0.037537, +44.525146, -12.481689, +60.882568
1494288455.392920, 1494288455.395214, -0.695618, +0.895752, +0.037537, +44.525146, -12.481689, +60.882568
1494288455.395480, 1494288455.397795, -0.695618, +0.895752, +0.037537, +43.395996, -21.545410, +68.725586
1494288455.398061, 1494288455.400366, -0.536682, +0.843018, -0.054199, +43.395996, -21.545410, +68.725586
1494288455.400634, 1494288455.402929, -0.536682, +0.843018, -0.054199, +42.282104, -28.259277, +74.401855
1494288455.403197, 1494288455.405505, -0.536682, +0.843018, -0.054199, +42.282104, -28.259277, +74.401855
1494288455.405770, 1494288455.408113, -0.536682, +0.843018, -0.054199, +39.703369, -31.524658, +78.430176
1494288455.408380, 1494288455.410685, -0.385071, +0.952332, -0.073059, +39.703369, -31.524658, +78.430176
1494288455.410952, 1494288455.413257, -0.385071, +0.952332, -0.073059, +36.285400, -34.332275, +80.886841
1494288455.413525, 1494288455.415822, -0.385071, +0.952332, -0.073059, +36.285400, -34.332275, +80.886841
1494288455.416089, 1494288455.418510, -0.385071, +0.952332, -0.073059, +33.142090, -36.499023, +80.551147
1494288455.418894, 1494288455.421325, -0.155273, +1.031250, -0.077637, +33.142090, -36.499023, +80.551147
1494288455.421600, 1494288455.424027, -0.155273, +1.031250, -0.077637, +32.791138, -36.636353, +78.765869
1494288455.424303, 1494288455.426731, -0.155273, +1.031250, -0.077637, +32.791138, -36.636353, +78.765869
1494288455.427007, 1494288455.429447, -0.155273, +0.984375, -0.154724, +32.135010, -32.775879, +75.637817
1494288455.429721, 1494288455.432142, +0.099609, +1.023376, -0.154724, +32.135010, -32.775879, +71.731567
1494288455.432417, 1494288455.434850, +0.099609, +1.023376, -0.154724, +30.609131, -26.123047, +72.235107
1494288455.435126, 1494288455.437547, +0.099609, +1.023376, -0.154724, +30.609131, -26.123047, +68.328857
1494288455.437831, 1494288455.440256, +0.201233, +0.995728, -0.288208, +30.441284, -17.501831, +68.588257
1494288455.440532, 1494288455.442960, +0.201233, +0.995728, -0.288208, +30.441284, -17.501831, +64.956665
1494288455.443236, 1494288455.445661, +0.201233, +0.995728, -0.288208, +30.303955, -7.339478, +64.956665
1494288455.445933, 1494288455.448373, +0.201233, +0.995728, -0.288208, +30.303955, -7.339478, +60.928345
1494288455.448643, 1494288455.451068, +0.144836, +0.993164, -0.311829, +29.235840, +1.586914, +60.928345
1494288455.451339, 1494288455.453769, +0.144836, +0.993164, -0.311829, +29.235840, +9.399414, +55.709839
1494288455.454042, 1494288455.456472, +0.144836, +0.993164, -0.311829, +27.938843, +9.323120, +55.709839
1494288455.456743, 1494288455.459180, +0.144836, +0.993164, -0.311829, +27.938843, +15.151978, +51.757812
1494288455.459454, 1494288455.461875, +0.089539, +0.970825, -0.283997, +25.924683, +15.151978, +51.757812
1494288455.462150, 1494288455.464579, +0.089539, +0.970825, -0.283997, +25.924683, +17.166138, +48.065186
1494288455.464853, 1494288455.467283, +0.089539, +0.970825, -0.283997, +23.742676, +17.166138, +48.065186
1494288455.467559, 1494288455.469994, +0.089539, +0.970825, -0.299011, +22.216797, +16.448975, +44.845581
1494288455.470269, 1494288455.472697, +0.063904, +0.929260, -0.299011, +22.216797, +16.448975, +44.845581
1494288455.472971, 1494288455.475495, +0.063904, +0.929260, -0.299011, +20.553589, +14.633179, +42.419434
1494288455.475768, 1494288455.478895, +0.063904, +0.929260, -0.299011, +20.553589, +14.633179, +42.419434
1494288455.479164, 1494288455.481461, -0.009155, +0.974487, -0.277039, +19.012451, +12.542725, +40.237427
1494288455.481730, 1494288455.484035, -0.009155, +0.974487, -0.277039, +19.012451, +12.542725, +40.237427
1494288455.484303, 1494288455.486592, -0.009155, +0.974487, -0.277039, +16.967773, +10.055542, +38.864136
1494288455.486859, 1494288455.489196, -0.009155, +0.974487, -0.277039, +16.967773, +10.055542, +38.864136
1494288455.489463, 1494288455.491762, -0.088989, +0.983459, -0.184387, +14.526367, +6.820679, +37.216187
1494288455.492026, 1494288455.494325, -0.088989, +0.983459, -0.184387, +14.526367, +6.820679, +37.216187
1494288455.494589, 1494288455.496886, -0.088989, +0.983459, -0.184387, +11.871338, +2.609253, +35.629272
1494288455.497149, 1494288455.499494, -0.088989, +0.983459, -0.184387, +11.871338, +2.609253, +35.629272
1494288455.499758, 1494288455.502046, -0.027649, +0.913879, -0.139160, +10.360718, -0.534058, +34.515381
1494288455.502311, 1494288455.504614, -0.027649, +0.913879, -0.139160, +10.360718, -0.534058, +34.515381
1494288455.504879, 1494288455.507170, -0.027649, +0.913879, -0.139160, +9.918213, -0.961304, +32.913208
1494288455.507433, 1494288455.509736, -0.027649, +0.913879, -0.139160, +9.918213, -0.961304, +32.913208
1494288455.509997, 1494288455.512295, +0.032959, +0.899231, -0.150879, +9.658813, +0.610352, +31.066895
1494288455.512558, 1494288455.514850, +0.032959, +0.899231, -0.150879, +9.658813, +0.610352, +31.066895
1494288455.515114, 1494288455.517407, +0.032959, +0.899231, -0.150879, +8.804321, +2.578735, +28.305054
1494288455.517670, 1494288455.519969, +0.032959, +0.899231, -0.150879, +8.804321, +2.578735, +28.305054
1494288455.520234, 1494288455.522527, +0.052551, +0.973206, -0.185303, +8.895874, +4.852295, +26.779175
1494288455.522898, 1494288455.525202, +0.052551, +0.973206, -0.185303, +8.895874, +4.852295, +26.779175
1494288455.525464, 1494288455.527897, +0.052551, +0.973206, -0.185303, +8.773804, +7.568359, +25.375366
1494288455.528158, 1494288455.530450, +0.052551, +0.973206, -0.279053, +8.773804, +7.568359, +25.375366
1494288455.530711, 1494288455.533008, +0.053101, +0.997925, -0.254517, +8.773804, +11.718750, +24.230957
1494288455.533274, 1494288455.535571, +0.053101, +0.997925, -0.254517, +9.429932, +11.718750, +24.230957
1494288455.535834, 1494288455.538275, +0.053101, +0.997925, -0.254517, +9.429932, +15.182495, +23.300171
1494288455.538539, 1494288455.540838, +0.053101, +0.997925, -0.188965, +8.987427, +15.182495, +23.300171
1494288455.541102, 1494288455.543392, -0.009888, +1.079407, -0.188965, +8.987427, +16.967773, +21.759033
1494288455.543659, 1494288455.545953, -0.009888, +1.079407, -0.188965, +8.728027, +16.967773, +21.759033
1494288455.546219, 1494288455.548554, -0.009888, +1.079407, -0.188965, +8.728027, +16.510010, +20.156860
1494288455.548821, 1494288455.551116, -0.009888, +1.079407, -0.135132, +8.453369, +16.510010, +20.156860
1494288455.551381, 1494288455.553678, +0.007324, +1.124634, -0.135132, +8.453369, +12.603760, +18.798828
1494288455.553942, 1494288455.556234, +0.007324, +1.124634, -0.135132, +8.132935, +14.877319, +18.798828
1494288455.556497, 1494288455.558810, +0.007324, +1.124634, -0.135132, +8.132935, +14.877319, +16.769409
1494288455.559076, 1494288455.561375, +0.007324, +1.171509, -0.133667, +7.736206, +14.633179, +16.769409
1494288455.561640, 1494288455.563937, +0.024353, +1.127380, -0.133667, +7.736206, +14.633179, +14.495850
1494288455.564201, 1494288455.566503, +0.024353, +1.127380, -0.133667, +6.698608, +15.502930, +14.495850
1494288455.566767, 1494288455.569183, +0.024353, +1.127380, -0.133667, +6.698608, +15.502930, +12.603760
1494288455.569454, 1494288455.571877, +0.024353, +1.101013, -0.168640, +5.767822, +15.426636, +12.603760
1494288455.572149, 1494288455.574576, +0.086609, +1.101013, -0.168640, +5.767822, +15.426636, +11.245728
1494288455.574847, 1494288455.577271, +0.086609, +1.101013, -0.168640, +5.233765, +14.907837, +11.245728
1494288455.577541, 1494288455.579982, +0.086609, +1.101013, -0.168640, +5.233765, +14.907837, +10.009766
1494288455.580253, 1494288455.582677, +0.141907, +1.061096, -0.238220, +4.974365, +15.380859, +10.009766
1494288455.582948, 1494288455.585370, +0.141907, +1.061096, -0.238220, +4.974365, +19.012451, +8.743286
1494288455.585639, 1494288455.588086, +0.141907, +1.061096, -0.238220, +4.684448, +19.012451, +8.743286
1494288455.588354, 1494288455.590780, +0.141907, +1.061096, -0.238220, +0.778198, +28.701782, +8.819580
1494288455.591049, 1494288455.593475, +0.011536, +1.078308, -0.270447, +3.280640, +28.701782, +8.819580
1494288455.593787, 1494288455.596324, +0.011536, +1.078308, -0.270447, +0.305176, +37.963867, +8.773804
1494288455.596593, 1494288455.599270, +0.011536, +1.078308, -0.270447, +0.305176, +37.963867, +8.773804
1494288455.599542, 1494288455.601965, +0.011536, +1.078308, -0.115723, -2.014160, +37.872314, +9.750366
1494288455.602235, 1494288455.604653, -0.073792, +1.098450, -0.115723, -2.014160, +37.872314, +9.750366
1494288455.604925, 1494288455.607351, -0.073792, +1.098450, -0.115723, -2.593994, +29.647827, +11.001587
1494288455.607624, 1494288455.609946, -0.073792, +1.098450, -0.115723, -2.593994, +29.647827, +11.001587
1494288455.610212, 1494288455.612510, -0.073792, +1.077209, -0.049805, -1.846313, +22.064209, +11.489868
1494288455.612775, 1494288455.615076, -0.072693, +1.077209, -0.049805, -1.846313, +22.064209, +11.489868
1494288455.615340, 1494288455.617639, -0.072693, +1.077209, -0.049805, -0.137329, +19.943237, +10.848999
1494288455.617966, 1494288455.620385, -0.072693, +1.077209, -0.049805, -0.137329, +19.943237, +10.848999
1494288455.620656, 1494288455.623089, -0.039734, +1.057983, -0.104553, +1.632690, +17.837524, +10.726929
1494288455.623363, 1494288455.625789, -0.039734, +1.057983, -0.104553, +1.632690, +17.837524, +10.726929
1494288455.626168, 1494288455.628566, -0.039734, +1.057983, -0.104553, +2.349854, +14.144897, +11.337280
1494288455.628831, 1494288455.631132, -0.039734, +1.057983, -0.104553, +2.349854, +14.144897, +11.337280
1494288455.631395, 1494288455.633698, -0.026001, +1.052856, -0.122131, +1.174927, +11.276245, +10.818481
1494288455.633961, 1494288455.636264, -0.026001, +1.052856, -0.122131, +1.174927, +11.276245, +10.818481
1494288455.636528, 1494288455.638834, -0.026001, +1.052856, -0.122131, +0.717163, +9.185791, +10.375977
1494288455.639096, 1494288455.641395, -0.026001, +1.052856, -0.122131, +0.717163, +9.185791, +10.375977
1494288455.641657, 1494288455.643959, +0.031860, +1.023560, -0.169189, +0.396729, +8.270264, +9.902954
1494288455.644219, 1494288455.646511, +0.031860, +1.023560, -0.169189, +0.396729, +8.270264, +9.902954
1494288455.646770, 1494288455.649219, +0.031860, +1.023560, -0.169189, -1.296997, +13.031006, +10.437012
1494288455.649484, 1494288455.651789, +0.031860, +1.023560, -0.169189, -1.296997, +13.031006, +10.437012
1494288455.652052, 1494288455.654348, +0.079651, +0.997375, -0.197937, -3.677368, +21.087646, +10.620117
1494288455.654613, 1494288455.656916, +0.079651, +0.997375, -0.197937, -3.677368, +21.087646, +10.620117
1494288455.657180, 1494288455.659696, +0.079651, +0.997375, -0.197937, -3.250122, +23.834229, +9.841919
1494288455.659966, 1494288455.662377, +0.079651, +0.997375, -0.197937, -3.250122, +23.834229, +9.841919
1494288455.662645, 1494288455.665059, +0.049438, +0.930359, -0.185852, -1.724243, +22.644043, +9.994507
1494288455.665329, 1494288455.667746, +0.049438, +0.930359, -0.185852, -1.724243, +22.644043, +9.994507
1494288455.668015, 1494288455.670423, +0.049438, +0.930359, -0.185852, -1.190186, +22.720337, +10.467529
1494288455.670694, 1494288455.673106, +0.049438, +1.024109, -0.124146, -1.190186, +22.720337, +10.467529
1494288455.673378, 1494288455.675792, -0.074158, +1.006165, -0.124146, -1.220703, +21.865845, +11.184692
1494288455.676063, 1494288455.678478, -0.074158, +1.006165, -0.124146, -1.220703, +21.865845, +11.184692
1494288455.678750, 1494288455.681159, -0.074158, +1.006165, -0.124146, -0.442505, +21.057129, +12.420654
1494288455.681430, 1494288455.683836, -0.121033, +1.045166, -0.092468, -0.442505, +21.057129, +12.420654
1494288455.684109, 1494288455.686522, -0.111511, +1.045166, -0.092468, +0.732422, +19.393921, +13.763428
1494288455.686794, 1494288455.689219, -0.111511, +1.045166, -0.092468, +0.732422, +19.393921, +13.763428
1494288455.689492, 1494288455.691898, -0.111511, +1.045166, -0.092468, +2.471924, +16.448975, +15.380859
1494288455.692167, 1494288455.694584, -0.074707, +1.042603, -0.104370, +2.471924, +16.448975, +15.380859
1494288455.694855, 1494288455.697266, -0.074707, +1.042603, -0.104370, +2.883911, +13.275146, +16.357422
1494288455.697537, 1494288455.699922, -0.074707, +1.042603, -0.104370, +2.883911, +13.275146, +16.357422
1494288455.700189, 1494288455.702488, -0.074707, +1.042603, -0.104370, +3.372192, +10.559082, +16.921997
1494288455.702753, 1494288455.705051, -0.061340, +1.053589, -0.120117, +3.372192, +10.559082, +16.921997
1494288455.705315, 1494288455.707615, -0.061340, +1.053589, -0.120117, +3.143311, +8.163452, +16.799927
1494288455.707885, 1494288455.710311, -0.061340, +1.053589, -0.120117, +3.143311, +8.163452, +16.799927
1494288455.710580, 1494288455.713001, -0.061340, +1.053589, -0.120117, +2.822876, +5.813599, +16.311646
1494288455.713270, 1494288455.715763, -0.019592, +1.044983, -0.121399, +2.822876, +5.813599, +16.311646
1494288455.716033, 1494288455.718867, -0.019592, +1.044983, -0.121399, +2.960205, +4.241943, +15.060425
1494288455.719139, 1494288455.721572, -0.019592, +1.044983, -0.121399, +2.960205, +4.241943, +13.610840
1494288455.721841, 1494288455.724264, +0.074158, +1.016418, -0.162231, +2.548218, +3.646851, +13.610840
1494288455.724534, 1494288455.726957, +0.073975, +1.016418, -0.162231, +2.548218, +3.646851, +12.252808
1494288455.727224, 1494288455.729667, +0.073975, +1.016418, -0.162231, +2.349854, +4.180908, +12.252808
1494288455.730049, 1494288455.732475, +0.073975, +1.016418, -0.162231, +2.349854, +4.180908, +10.467529
1494288455.732743, 1494288455.735176, +0.136597, +0.998291, -0.206909, +1.968384, +6.698608, +10.467529
1494288455.735444, 1494288455.737864, +0.136597, +0.998291, -0.206909, +1.968384, +9.536743, +8.590698
1494288455.738125, 1494288455.740419, +0.136597, +0.998291, -0.206909, +0.701904, +9.536743, +8.590698
1494288455.740680, 1494288455.742979, +0.136597, +0.998291, -0.206909, +0.701904, +13.442993, +6.286621
1494288455.743240, 1494288455.745538, +0.119385, +0.998474, -0.214783, -0.839233, +11.734009, +6.286621
1494288455.745799, 1494288455.748151, +0.119385, +0.998474, -0.214783, -0.839233, +11.734009, +4.272461
1494288455.748413, 1494288455.750713, +0.119385, +0.998474, -0.214783, -3.448486, +13.137817, +4.272461
1494288455.750975, 1494288455.753273, +0.119385, +0.998474, -0.214783, -3.448486, +13.137817, +2.746582
1494288455.753534, 1494288455.755833, +0.055298, +1.027771, -0.197571, -4.959106, +15.045166, +2.746582
1494288455.756094, 1494288455.758398, +0.055298, +1.027771, -0.197571, -4.959106, +15.045166, +0.976562
1494288455.758659, 1494288455.760957, +0.055298, +1.027771, -0.197571, -6.607056, +14.633179, +0.976562
1494288455.761219, 1494288455.763520, +0.055298, +1.027771, -0.197571, -6.607056, +14.633179, -2.929688
1494288455.763781, 1494288455.766078, -0.018677, +1.053040, -0.199402, -9.521484, +12.496948, -0.320435
1494288455.766342, 1494288455.768682, -0.018677, +1.053040, -0.199402, -9.521484, +12.496948, -0.320435
1494288455.768946, 1494288455.771248, -0.018677, +1.053040, -0.199402, -11.749268, +9.735107, -1.525879
1494288455.771511, 1494288455.773810, -0.018677, +1.053040, -0.199402, -11.749268, +9.735107, -1.525879
1494288455.774072, 1494288455.776374, +0.047791, +1.025940, -0.252319, -13.015747, +7.186890, -2.487183
1494288455.776636, 1494288455.779101, +0.047791, +1.025940, -0.252319, -13.015747, +7.186890, -2.487183
1494288455.779370, 1494288455.781798, +0.047791, +1.025940, -0.252319, -13.504028, +4.501343, -3.768921
1494288455.782067, 1494288455.784499, +0.047791, +1.025940, -0.255249, -13.504028, +4.501343, -7.675171
1494288455.784767, 1494288455.787194, +0.080566, +1.020081, -0.255249, -14.999390, +2.883911, -5.691528
1494288455.787465, 1494288455.789776, +0.080566, +1.020081, -0.255249, -14.999390, +2.883911, -5.691528
1494288455.790041, 1494288455.792346, +0.080566, +1.020081, -0.255249, -16.738892, +1.205444, -7.263184
1494288455.792608, 1494288455.794903, +0.080566, +1.066956, -0.214050, -16.738892, +1.205444, -7.263184
1494288455.795164, 1494288455.797464, +0.035522, +1.044617, -0.214050, -18.386841, -0.808716, -9.399414
1494288455.797761, 1494288455.800184, +0.035522, +1.044617, -0.214050, -18.386841, -0.808716, -9.399414
1494288455.800453, 1494288455.802874, +0.035522, +1.044617, -0.214050, -20.507812, -2.792358, -11.764526
1494288455.803146, 1494288455.805571, -0.011353, +1.052307, -0.168457, -20.507812, -2.792358, -11.764526
1494288455.805842, 1494288455.808269, -0.000183, +1.052307, -0.168457, -21.850586, -4.241943, -14.144897
1494288455.808541, 1494288455.810969, -0.000183, +1.052307, -0.168457, -21.850586, -4.241943, -17.105103
1494288455.811239, 1494288455.813667, -0.000183, +1.052307, -0.168457, -22.262573, -5.081177, -17.105103
1494288455.813938, 1494288455.816365, +0.043396, +1.041138, -0.144287, -22.262573, -5.081177, -20.523071
1494288455.816635, 1494288455.819076, +0.043396, +1.041138, -0.144287, -22.964478, -4.592896, -20.523071
1494288455.819348, 1494288455.821776, +0.043396, +1.041138, -0.144287, -22.964478, -4.592896, -23.956299
1494288455.822046, 1494288455.824473, +0.043396, +1.041138, -0.144287, -23.941040, -3.845215, -23.956299
1494288455.824744, 1494288455.827174, +0.080566, +1.047180, -0.159485, -23.941040, -3.845215, -28.060913
1494288455.827445, 1494288455.829773, +0.080566, +1.047180, -0.159485, -24.917603, -2.410889, -28.060913
1494288455.830039, 1494288455.832335, +0.080566, +1.047180, -0.159485, -24.917603, -2.410889, -32.394409
1494288455.832599, 1494288455.835069, +0.080566, +1.047180, -0.206360, -25.817871, -1.342773, -32.394409
1494288455.835442, 1494288455.838169, +0.094299, +1.047913, -0.215332, -25.817871, -1.174927, -36.727905
1494288455.838445, 1494288455.840873, +0.094299, +1.047913, -0.215332, -27.496338, -1.174927, -36.727905
1494288455.841145, 1494288455.843567, +0.094299, +1.047913, -0.215332, -28.701782, -1.708984, -41.046143
1494288455.843839, 1494288455.846269, +0.148132, +1.028870, -0.235657, -28.701782, -1.708984, -41.046143
1494288455.846539, 1494288455.848974, +0.148132, +1.028870, -0.235657, -29.571533, -2.838135, -45.684814
1494288455.849245, 1494288455.851671, +0.148132, +1.028870, -0.235657, -29.571533, -2.838135, -45.684814
1494288455.851941, 1494288455.854372, +0.148132, +1.028870, -0.235657, -30.548096, -3.860474, -49.819946
1494288455.854646, 1494288455.857068, +0.138794, +1.037659, -0.231262, -30.548096, -3.860474, -49.819946
1494288455.857338, 1494288455.859769, +0.138794, +1.037659, -0.231262, -31.982422, -5.081177, -54.016113
1494288455.860039, 1494288455.862467, +0.138794, +1.037659, -0.231262, -31.982422, -5.081177, -54.016113
1494288455.862737, 1494288455.865162, +0.138794, +1.037659, -0.231262, -33.615112, -6.546021, -58.303833
1494288455.865432, 1494288455.867866, +0.123779, +1.072083, -0.169739, -33.615112, -6.546021, -58.303833
1494288455.868132, 1494288455.870429, +0.123779, +1.072083, -0.169739, -33.874512, -7.583618, -62.225342
1494288455.870693, 1494288455.872991, +0.123779, +1.072083, -0.169739, -33.874512, -7.583618, -62.225342
1494288455.873255, 1494288455.875555, +0.123779, +1.072083, -0.169739, -33.447266, -7.476807, -65.765381
1494288455.875820, 1494288455.878174, +0.140991, +0.997375, -0.172668, -33.447266, -7.476807, -65.765381
1494288455.878437, 1494288455.880737, +0.140991, +0.997375, -0.172668, -31.677246, -6.500244, -69.076538
1494288455.881001, 1494288455.883303, +0.140991, +0.997375, -0.172668, -31.677246, -6.500244, -69.076538
1494288455.883567, 1494288455.885864, +0.140991, +0.997375, -0.175415, -30.609131, -5.691528, -71.899414
1494288455.886129, 1494288455.888642, +0.088989, +0.939514, -0.175415, -30.609131, -5.691528, -71.899414
1494288455.888909, 1494288455.891208, +0.088989, +0.939514, -0.175415, -30.960083, -6.973267, -73.120117
1494288455.891473, 1494288455.893772, +0.088989, +0.939514, -0.175415, -30.960083, -6.973267, -73.120117
1494288455.894037, 1494288455.896343, +0.088989, +0.939514, -0.024170, -33.721924, -11.627197, -73.501587
1494288455.896610, 1494288455.899103, -0.096497, +0.983643, -0.024170, -33.721924, -11.627197, -73.501587
1494288455.899377, 1494288455.901799, -0.096497, +0.983643, -0.024170, -35.812378, -19.226074, -73.730469
1494288455.902076, 1494288455.904505, -0.096497, +0.983643, -0.024170, -35.812378, -19.226074, -73.730469
1494288455.904781, 1494288455.907200, -0.193176, +1.077393, +0.056580, -37.170410, -25.634766, -73.211670
1494288455.907476, 1494288455.909912, -0.193176, +1.077393, +0.056580, -37.170410, -25.634766, -73.211670
1494288455.910186, 1494288455.912608, -0.193176, +1.077393, +0.056580, -37.475586, -31.555176, -72.723389
1494288455.912883, 1494288455.915305, -0.193176, +1.077393, +0.056580, -37.475586, -31.555176, -72.723389
1494288455.915579, 1494288455.918017, -0.063721, +1.163635, -0.026550, -38.772583, -36.041260, -72.677612
1494288455.918291, 1494288455.920714, -0.063721, +1.163635, -0.026550, -38.772583, -36.041260, -72.677612
1494288455.920989, 1494288455.923413, -0.063721, +1.163635, -0.026550, -40.664673, -39.306641, -72.204590
1494288455.923689, 1494288455.926117, -0.063721, +1.163635, -0.026550, -40.664673, -39.306641, -72.204590
1494288455.926392, 1494288455.928780, +0.003662, +1.153748, -0.134583, -42.892456, -40.954590, -73.852539
1494288455.929050, 1494288455.931355, +0.003662, +1.153748, -0.134583, -42.892456, -40.954590, -73.852539
1494288455.931622, 1494288455.933917, +0.003662, +1.153748, -0.134583, -43.731689, -39.611816, -76.858521
1494288455.934184, 1494288455.936482, +0.003662, +1.153748, -0.228333, -43.731689, -39.611816, -76.858521
1494288455.936749, 1494288455.939206, +0.035339, +1.142029, -0.206726, -43.945312, -37.200928, -80.566406
1494288455.939589, 1494288455.942012, +0.035339, +1.142029, -0.206726, -43.945312, -37.200928, -80.566406
1494288455.942286, 1494288455.944706, +0.035339, +1.142029, -0.206726, -44.403076, -34.255981, -83.847046
1494288455.944981, 1494288455.947409, +0.035339, +1.104309, -0.247925, -44.403076, -34.255981, -83.847046
1494288455.947684, 1494288455.950109, +0.102722, +1.104309, -0.247925, -46.020508, -30.929565, -84.976196
1494288455.950383, 1494288455.952809, +0.102722, +1.104309, -0.247925, -46.020508, -30.929565, -84.976196
1494288455.953085, 1494288455.955716, +0.102722, +1.104309, -0.247925, -48.171997, -26.336670, -85.723877
1494288455.955990, 1494288455.958740, +0.050720, +1.065857, -0.213867, -48.171997, -26.336670, -85.784912
1494288455.959017, 1494288455.961449, +0.050720, +1.065857, -0.213867, -48.355103, -21.911621, -85.784912
1494288455.961725, 1494288455.964150, +0.050720, +1.065857, -0.213867, -48.355103, -18.585205, -85.296631
1494288455.964423, 1494288455.966853, +0.050720, +1.065857, -0.213867, -49.377441, -18.585205, -85.296631
1494288455.967127, 1494288455.969564, -0.110962, +0.903259, -0.151428, -49.377441, -16.021729, -84.823608
1494288455.969838, 1494288455.972262, -0.110962, +0.903259, -0.151428, -49.865723, -16.021729, -84.823608
1494288455.972538, 1494288455.974962, -0.110962, +0.903259, -0.151428, -48.400879, -14.984131, -84.030151
1494288455.975238, 1494288455.977665, -0.110962, +0.762634, -0.065186, -48.400879, -14.984131, -84.030151
1494288455.977985, 1494288455.980281, -0.221191, +0.790649, -0.065186, -48.263550, -15.075684, -81.649780
1494288455.980548, 1494288455.982850, -0.221191, +0.790649, -0.065186, -48.263550, -15.075684, -81.649780
1494288455.983117, 1494288455.985415, -0.221191, +0.790649, -0.065186, -50.872803, -17.272949, -78.582764
1494288455.985681, 1494288455.987998, -0.221191, +0.980347, +0.115173, -50.872803, -17.272949, -78.582764
1494288455.988264, 1494288455.990566, -0.614136, +0.980347, +0.115173, -51.910400, -20.202637, -76.400757
1494288455.990833, 1494288455.993131, -0.614136, +0.980347, +0.115173, -51.910400, -20.202637, -76.400757
1494288455.993400, 1494288455.995704, -0.614136, +0.980347, +0.115173, -51.910400, -24.841309, -75.805664
1494288455.995971, 1494288455.998319, -0.332886, +0.880554, +0.190796, -51.437378, -24.841309, -75.805664
1494288455.998585, 1494288456.000881, -0.333618, +0.880554, +0.190796, -47.531128, -30.288696, -72.662354
1494288456.001149, 1494288456.003448, -0.333618, +0.880554, +0.190796, -49.468994, -30.288696, -72.662354
1494288456.003715, 1494288456.006014, -0.333618, +0.880554, +0.190796, -49.468994, -29.708862, -65.093994
1494288456.006279, 1494288456.008719, -0.195007, +0.861145, +0.135681, -46.051025, -29.708862, -65.093994
1494288456.008986, 1494288456.011288, -0.195007, +0.861145, +0.135681, -46.051025, -25.604248, -58.227539
1494288456.011554, 1494288456.013851, -0.195007, +0.861145, +0.135681, -44.677734, -25.604248, -58.227539
1494288456.014116, 1494288456.016420, -0.195007, +0.861145, +0.135681, -44.677734, -25.604248, -52.993774
1494288456.016685, 1494288456.019158, -0.585205, +1.192932, +0.232361, -43.395996, -23.559570, -52.993774
1494288456.019433, 1494288456.021859, -0.585205, +1.192932, +0.232361, -43.395996, -24.627686, -49.301147
1494288456.022133, 1494288456.024558, -0.585205, +1.192932, +0.232361, -41.687012, -24.627686, -49.301147
1494288456.024833, 1494288456.027254, -0.585205, +1.192932, +0.232361, -41.687012, -30.258179, -43.899536
1494288456.027528, 1494288456.029854, -0.282532, +1.080688, +0.237671, -40.725708, -30.258179, -43.899536
1494288456.030120, 1494288456.032421, -0.282532, +1.080688, +0.237671, -40.725708, -31.265259, -36.926270
1494288456.032686, 1494288456.034984, -0.282532, +1.080688, +0.237671, -37.643433, -31.265259, -36.926270
1494288456.035251, 1494288456.037553, -0.282532, +1.080688, +0.237671, -37.643433, -23.452759, -31.768799
1494288456.037826, 1494288456.040537, -0.273193, +1.081970, +0.146118, -32.394409, -26.840210, -31.768799
1494288456.041057, 1494288456.043845, -0.273193, +1.081970, +0.146118, -26.809692, -19.775391, -26.809692
1494288456.044120, 1494288456.046422, -0.273193, +1.081970, +0.146118, -26.809692, -19.775391, -26.809692
1494288456.046688, 1494288456.049082, -0.366943, +1.037842, +0.027832, -20.919800, -15.014648, -21.301270
1494288456.049351, 1494288456.051654, -0.331787, +1.037842, +0.027832, -20.919800, -15.014648, -21.301270
1494288456.051924, 1494288456.054217, -0.331787, +1.037842, +0.027832, -11.291504, -11.032104, -15.426636
1494288456.054486, 1494288456.056780, -0.331787, +1.037842, +0.027832, -11.291504, -11.032104, -15.426636
1494288456.057046, 1494288456.059466, -0.520020, +0.764832, -0.049072, +2.716064, -6.179810, -9.384155
1494288456.059726, 1494288456.062018, -0.520020, +0.764832, -0.049072, +2.716064, -6.179810, -9.384155
1494288456.062278, 1494288456.064570, -0.520020, +0.764832, -0.049072, +18.600464, -3.372192, -2.273560
1494288456.064832, 1494288456.067130, -0.520020, +0.764832, -0.049072, +18.600464, -3.372192, -2.273560
1494288456.067390, 1494288456.069820, -0.636108, +0.944641, +0.279968, +32.577515, -2.838135, +6.622314
