timestamp_before, timestamp_after, accel_x, accel_y, accel_z, gyro_x, gyro_y, gyro_z
1491873184.009682, 1491873184.012518, -0.283447, +1.257202, -0.164612, -1.083374, +0.350952, +2.685547
1491873184.012866, 1491873184.015158, -0.283447, +1.257202, -0.164612, -1.251221, +1.907349, +3.189087
1491873184.015416, 1491873184.017712, -0.283447, +1.257202, -0.164612, -1.251221, +1.907349, +3.189087
1491873184.017967, 1491873184.020461, -0.283447, +1.257202, -0.164612, -0.915527, +1.083374, +2.944946
1491873184.020721, 1491873184.023019, -0.200317, +0.995544, -0.101440, -0.915527, +1.083374, +2.944946
1491873184.023278, 1491873184.025576, -0.200317, +0.995544, -0.101440, -0.869751, +0.869751, +3.021240
1491873184.025834, 1491873184.028125, -0.200317, +0.995544, -0.101440, -0.869751, +0.869751, +3.021240
1491873184.028383, 1491873184.030868, -0.200317, +0.995544, -0.101440, -0.671387, +0.473022, +2.914429
1491873184.031127, 1491873184.033425, -0.213318, +1.021545, -0.121582, -0.671387, +0.473022, +2.914429
1491873184.033684, 1491873184.035976, -0.213318, +1.021545, -0.121582, -0.747681, +0.106812, +2.716064
1491873184.036234, 1491873184.038535, -0.213318, +1.021545, -0.121582, -0.747681, +0.106812, +2.716064
1491873184.038792, 1491873184.041235, -0.213318, +1.021545, -0.118835, -0.473022, +0.137329, +2.609253
1491873184.041492, 1491873184.043789, -0.211304, +1.026489, -0.118835, -0.473022, +0.137329, +2.609253
1491873184.044047, 1491873184.046342, -0.211304, +1.026489, -0.118835, -0.579834, -0.015259, +2.670288
1491873184.046600, 1491873184.048895, -0.211304, +1.026489, -0.118835, -0.579834, -0.015259, +2.670288
1491873184.049154, 1491873184.051599, -0.211304, +1.026489, -0.122498, -0.625610, -0.503540, +2.685547
1491873184.051870, 1491873184.054287, -0.210754, +1.023193, -0.122498, -0.625610, -0.503540, +2.685547
1491873184.054554, 1491873184.056981, -0.210754, +1.023193, -0.122498, -0.549316, -0.198364, +2.685547
1491873184.057246, 1491873184.059673, -0.210754, +1.023193, -0.122498, -0.549316, -0.198364, +2.685547
1491873184.059938, 1491873184.062373, -0.207092, +1.023193, -0.119751, -0.625610, +0.030518, +2.426147
1491873184.062639, 1491873184.065065, -0.207092, +1.023193, -0.119751, -0.625610, +0.030518, +2.426147
1491873184.065331, 1491873184.067761, -0.207092, +1.023193, -0.119751, -0.900269, +0.137329, +2.090454
1491873184.068028, 1491873184.070507, -0.207092, +1.023193, -0.119751, -0.900269, +0.137329, +2.090454
1491873184.070772, 1491873184.073200, -0.221191, +1.027039, -0.098511, -1.586914, +0.045776, +2.182007
1491873184.073466, 1491873184.075893, -0.221191, +1.027039, -0.098511, -1.586914, +0.045776, +2.182007
1491873184.076158, 1491873184.078583, -0.221191, +1.027039, -0.098511, -2.151489, +0.335693, +2.105713
1491873184.078849, 1491873184.081318, -0.221191, +1.027039, -0.098511, -2.151489, +0.335693, +2.105713
1491873184.081586, 1491873184.084010, -0.217712, +1.016968, -0.084961, -1.663208, +0.030518, +2.502441
1491873184.084276, 1491873184.086825, -0.217712, +1.016968, -0.084961, -1.663208, +0.030518, +2.502441
1491873184.087090, 1491873184.089513, -0.217712, +1.016968, -0.084961, -0.808716, -0.335693, +2.822876
1491873184.089779, 1491873184.092114, -0.217712, +1.016785, -0.087891, -0.808716, -0.335693, +2.822876
1491873184.092372, 1491873184.094679, -0.213684, +1.016785, -0.087891, -0.427246, -0.289917, +3.387451
1491873184.094938, 1491873184.097237, -0.213684, +1.016785, -0.087891, -0.427246, -0.289917, +3.387451
1491873184.097495, 1491873184.099798, -0.213684, +1.016785, -0.087891, -0.671387, +0.015259, +3.173828
1491873184.100090, 1491873184.102515, -0.213684, +1.012207, -0.054932, -0.671387, +0.015259, +3.173828
1491873184.102781, 1491873184.105203, -0.228516, +1.012207, -0.054932, -0.335693, +0.488281, +3.036499
1491873184.105467, 1491873184.107893, -0.228516, +1.012207, -0.054932, -0.335693, +0.488281, +3.036499
1491873184.108157, 1491873184.110593, -0.228516, +1.012207, -0.054932, +0.152588, +1.220703, +3.585815
1491873184.110859, 1491873184.113280, -0.215149, +1.000488, -0.055481, +0.152588, +1.220703, +3.585815
1491873184.113692, 1491873184.116123, -0.215149, +1.000488, -0.055481, +0.473022, +1.815796, +3.860474
1491873184.116387, 1491873184.118809, -0.215149, +1.000488, -0.055481, +0.473022, +1.815796, +3.860474
1491873184.119074, 1491873184.121441, -0.215149, +1.000488, -0.055481, +0.885010, +2.243042, +3.631592
1491873184.121700, 1491873184.123997, -0.210388, +0.998840, -0.077820, +0.885010, +2.243042, +3.631592
1491873184.124256, 1491873184.126551, -0.210388, +0.998840, -0.077820, +1.235962, +2.899170, +3.387451
1491873184.126808, 1491873184.129110, -0.210388, +0.998840, -0.077820, +1.235962, +2.899170, +3.387451
1491873184.129366, 1491873184.131797, -0.210388, +0.998840, -0.077820, +1.388550, +3.036499, +3.417969
1491873184.132056, 1491873184.134356, -0.217346, +0.988586, -0.087341, +1.388550, +3.036499, +3.417969
1491873184.134614, 1491873184.136911, -0.217346, +0.988586, -0.087341, +1.617432, +2.990723, +3.311157
1491873184.137167, 1491873184.139465, -0.217346, +0.988586, -0.087341, +1.617432, +2.990723, +3.311157
1491873184.139721, 1491873184.142246, -0.217346, +0.988586, -0.087341, +1.235962, +3.234863, +3.036499
1491873184.142512, 1491873184.144931, -0.202332, +0.990417, -0.056946, +1.235962, +3.234863, +3.036499
1491873184.145196, 1491873184.147624, -0.202332, +0.990417, -0.056946, +1.373291, +4.089355, +2.883911
1491873184.147889, 1491873184.150326, -0.202332, +0.990417, -0.056946, +1.373291, +4.089355, +2.883911
1491873184.150592, 1491873184.153011, -0.202332, +0.990417, -0.081482, +1.220703, +4.913330, +2.349854
1491873184.153275, 1491873184.155701, -0.214417, +1.009827, -0.081482, +1.220703, +4.913330, +2.349854
1491873184.155965, 1491873184.158397, -0.214417, +1.009827, -0.081482, +0.244141, +5.477905, +2.059937
1491873184.158664, 1491873184.161100, -0.214417, +1.009827, -0.081482, +0.244141, +5.477905, +1.525879
1491873184.161365, 1491873184.163792, -0.210388, +1.019531, -0.100159, -0.396729, +4.333496, +1.525879
1491873184.164059, 1491873184.166481, -0.210388, +1.019531, -0.100159, -0.396729, +4.333496, +1.632690
1491873184.166746, 1491873184.169172, -0.210388, +1.019531, -0.100159, -1.052856, +2.487183, +1.632690
1491873184.169436, 1491873184.171933, -0.210388, +1.019531, -0.100159, -1.052856, +2.487183, +1.037598
1491873184.172199, 1491873184.174622, -0.198120, +1.063660, -0.119568, -0.946045, +1.251221, +1.037598
1491873184.174888, 1491873184.177313, -0.198120, +1.063660, -0.119568, -0.946045, -2.319336, -1.113892
1491873184.177578, 1491873184.180008, -0.198120, +1.063660, -0.119568, -2.044678, -2.319336, -1.113892
1491873184.180311, 1491873184.182682, -0.198120, +1.063660, -0.119568, -2.044678, -6.607056, -2.822876
1491873184.182939, 1491873184.185240, -0.194275, +1.141479, -0.134216, -3.677368, -6.607056, -2.822876
1491873184.185495, 1491873184.187796, -0.194275, +1.141479, -0.134216, -3.677368, -10.070801, -4.745483
1491873184.188055, 1491873184.190521, -0.194275, +1.141479, -0.134216, -4.974365, -10.070801, -4.745483
1491873184.190788, 1491873184.193179, -0.194275, +1.141479, -0.120850, -4.974365, -11.917114, -7.446289
1491873184.193449, 1491873184.195897, -0.104919, +1.162537, -0.120850, -5.783081, -11.917114, -7.446289
1491873184.196172, 1491873184.198575, -0.104919, +1.162537, -0.120850, -5.783081, -13.061523, -10.498047
1491873184.198847, 1491873184.201437, -0.104919, +1.162537, -0.120850, -6.622314, -13.061523, -10.498047
1491873184.201711, 1491873184.204137, -0.104919, +1.185059, -0.132935, -8.239746, -13.641357, -13.687134
1491873184.204408, 1491873184.206832, -0.117371, +1.185059, -0.132935, -8.239746, -13.641357, -13.687134
1491873184.207104, 1491873184.209526, -0.117371, +1.185059, -0.132935, -9.887695, -13.732910, -17.852783
1491873184.209800, 1491873184.212226, -0.117371, +1.185059, -0.132935, -9.887695, -13.732910, -17.852783
1491873184.212498, 1491873184.214926, -0.094116, +1.190002, -0.118286, -11.886597, -14.556885, -21.743774
1491873184.215200, 1491873184.217626, -0.094116, +1.190002, -0.118286, -11.886597, -14.556885, -21.743774
1491873184.217899, 1491873184.220326, -0.094116, +1.190002, -0.118286, -14.450073, -15.670776, -25.848389
1491873184.220715, 1491873184.223016, -0.094116, +1.190002, -0.118286, -14.450073, -15.670776, -25.848389
1491873184.223282, 1491873184.225584, -0.075439, +1.179199, -0.195007, -16.723633, -18.173218, -30.075073
1491873184.225853, 1491873184.228150, -0.075439, +1.179199, -0.195007, -16.723633, -18.173218, -30.075073
1491873184.228419, 1491873184.230725, -0.075439, +1.179199, -0.195007, -18.981934, -21.759033, -34.545898
1491873184.230993, 1491873184.233293, -0.075439, +1.179199, -0.195007, -18.981934, -21.759033, -34.545898
1491873184.233559, 1491873184.235857, -0.089539, +1.269287, -0.289307, -21.591187, -25.741577, -39.321899
1491873184.236123, 1491873184.238422, -0.089539, +1.269287, -0.289307, -21.591187, -25.741577, -39.321899
1491873184.238689, 1491873184.241103, -0.089539, +1.269287, -0.289307, -24.765015, -30.914307, -45.272827
1491873184.241370, 1491873184.243670, -0.089539, +1.269287, -0.289307, -24.765015, -30.914307, -45.272827
1491873184.243937, 1491873184.246231, -0.034424, +1.369812, -0.295715, -27.832031, -36.193848, -51.040649
1491873184.246497, 1491873184.248794, -0.034424, +1.369812, -0.295715, -27.832031, -36.193848, -51.040649
1491873184.249059, 1491873184.251413, -0.034424, +1.369812, -0.295715, -31.066895, -42.068481, -56.579590
1491873184.251681, 1491873184.253978, -0.034424, +1.369812, -0.299194, -31.066895, -42.068481, -56.579590
1491873184.254244, 1491873184.256538, -0.046875, +1.462830, -0.299194, -33.157349, -46.997070, -61.309814
1491873184.256806, 1491873184.259096, -0.046875, +1.462830, -0.299194, -33.157349, -46.997070, -61.309814
1491873184.259362, 1491873184.261849, -0.046875, +1.462830, -0.299194, -34.133911, -51.467896, -66.009521
1491873184.262118, 1491873184.264410, -0.046875, +1.556580, -0.227783, -34.133911, -51.467896, -66.009521
1491873184.264679, 1491873184.266976, -0.016296, +1.550720, -0.227783, -35.507202, -56.121826, -71.304321
1491873184.267242, 1491873184.269536, -0.016296, +1.550720, -0.227783, -35.507202, -56.121826, -71.304321
1491873184.269801, 1491873184.272104, -0.016296, +1.550720, -0.227783, -35.507202, -60.180664, -76.889038
1491873184.272371, 1491873184.274665, -0.016296, +1.588806, -0.183838, -35.980225, -60.180664, -76.889038
1491873184.274930, 1491873184.277225, +0.135132, +1.588806, -0.183838, -35.980225, -62.393188, -81.649780
1491873184.277489, 1491873184.279784, +0.135132, +1.588806, -0.183838, -35.400391, -62.393188, -81.649780
1491873184.280088, 1491873184.282386, +0.135132, +1.588806, -0.183838, -35.400391, -62.393188, -86.517334
1491873184.282653, 1491873184.284951, +0.135132, +1.733826, -0.257996, -32.684326, -62.240601, -86.517334
1491873184.285218, 1491873184.287506, +0.321350, +1.733826, -0.257996, -32.684326, -62.240601, -91.171265
1491873184.287774, 1491873184.290128, +0.321350, +1.733826, -0.257996, -29.647827, -60.531616, -91.171265
1491873184.290394, 1491873184.292692, +0.321350, +1.733826, -0.257996, -29.647827, -60.531616, -98.312378
1491873184.292957, 1491873184.295252, +0.274475, +2.043274, -0.141357, -29.052734, -59.341431, -98.312378
1491873184.295520, 1491873184.297817, +0.260925, +2.043274, -0.141357, -29.052734, -59.341431, -106.033325
1491873184.298084, 1491873184.300384, +0.260925, +2.043274, -0.141357, -30.502319, -60.958862, -106.033325
1491873184.300653, 1491873184.302948, +0.260925, +2.043274, -0.141357, -30.502319, -60.958862, -109.939575
1491873184.303215, 1491873184.305506, +0.214050, +2.285339, -0.130188, -30.441284, -64.422607, -110.916138
1491873184.305772, 1491873184.308067, +0.214600, +2.285339, -0.130188, -30.441284, -64.422607, -110.916138
1491873184.308334, 1491873184.310694, +0.214600, +2.285339, -0.130188, -30.334473, -69.320679, -113.235474
1491873184.310962, 1491873184.313259, +0.214600, +2.285339, -0.130188, -30.334473, -69.320679, -113.235474
1491873184.313525, 1491873184.315819, +0.336914, +2.645691, -0.025269, -33.752441, -73.440552, -114.913940
1491873184.316088, 1491873184.318443, +0.336914, +2.645691, -0.025269, -33.752441, -73.440552, -114.913940
1491873184.318712, 1491873184.321141, +0.336914, +2.645691, -0.025269, -40.969849, -72.738647, -117.385864
1491873184.321527, 1491873184.323958, +0.336914, +2.645691, -0.025269, -40.969849, -72.738647, -117.385864
1491873184.324231, 1491873184.326656, +0.809326, +2.510010, -0.188599, -44.906616, -71.548462, -120.758057
1491873184.326929, 1491873184.329355, +0.809326, +2.510010, -0.188599, -44.906616, -71.548462, -124.542236
1491873184.329630, 1491873184.332019, +0.809326, +2.510010, -0.188599, -42.068481, -60.592651, -124.542236
1491873184.332288, 1491873184.334586, +0.809326, +2.510010, -0.188599, -42.068481, -60.592651, -122.817993
1491873184.334852, 1491873184.337149, +1.153015, +1.746460, -0.579346, -35.308838, -31.234741, -122.817993
1491873184.337412, 1491873184.339712, +1.153015, +1.746460, -0.579346, -35.308838, -31.234741, -118.911743
1491873184.339978, 1491873184.342278, +1.153015, +1.746460, -0.579346, -27.862549, +2.609253, -118.774414
1491873184.342541, 1491873184.344843, +1.153015, +1.746460, -0.579346, -27.862549, +2.609253, -118.774414
1491873184.345105, 1491873184.347398, +0.370605, +1.585693, -0.615784, -23.208618, +35.766602, -115.997314
1491873184.347665, 1491873184.349960, +0.370605, +1.585693, -0.615784, -23.208618, +35.766602, -115.997314
1491873184.350244, 1491873184.352545, +0.370605, +1.585693, -0.615784, -19.882202, +63.980103, -113.616943
1491873184.352811, 1491873184.355108, +0.370605, +1.585693, -0.615784, -19.882202, +63.980103, -113.616943
1491873184.355377, 1491873184.357676, -0.484314, +1.592285, -0.249207, -18.661499, +89.859009, -113.891602
1491873184.357944, 1491873184.360395, -0.484314, +1.592285, -0.249207, -18.661499, +89.859009, -113.891602
1491873184.360664, 1491873184.362961, -0.484314, +1.592285, -0.249207, -22.735596, +100.326538, -115.295410
1491873184.363228, 1491873184.365528, -0.484314, +1.592285, +0.034241, -22.735596, +100.326538, -115.295410
1491873184.365795, 1491873184.368091, -1.143127, +1.693359, +0.034241, -28.152466, +85.250854, -118.026733
1491873184.368357, 1491873184.370839, -1.143127, +1.693359, +0.034241, -28.152466, +85.250854, -118.026733
1491873184.371114, 1491873184.373540, -1.143127, +1.693359, +0.034241, -25.299072, +67.428589, -122.055054
1491873184.373814, 1491873184.376235, -1.143127, +1.638977, -0.069031, -25.299072, +67.428589, -122.055054
1491873184.376510, 1491873184.378930, -1.268372, +1.638977, -0.069031, -16.693115, +61.874390, -121.673584
1491873184.379204, 1491873184.381556, -1.268372, +1.638977, -0.069031, -16.693115, +61.874390, -121.673584
1491873184.381821, 1491873184.384118, -1.268372, +1.638977, -0.069031, -7.293701, +62.622070, -117.828369
1491873184.384382, 1491873184.386689, -0.940247, +1.651062, -0.226501, -7.293701, +62.622070, -117.828369
1491873184.386953, 1491873184.389251, -0.940796, +1.651062, -0.226501, -1.510620, +65.185547, -109.359741
1491873184.389514, 1491873184.391945, -0.940796, +1.651062, -0.226501, -1.510620, +65.185547, -109.359741
1491873184.392215, 1491873184.394641, -0.940796, +1.651062, -0.226501, -2.456665, +73.028564, -105.957031
1491873184.394913, 1491873184.397335, -0.996460, +1.450012, -0.339111, -2.456665, +73.028564, -105.957031
1491873184.397607, 1491873184.400031, -0.996460, +1.450012, -0.339111, +3.158569, +81.207275, -114.578247
1491873184.400349, 1491873184.402782, -0.996460, +1.450012, -0.339111, +3.158569, +81.207275, -114.578247
1491873184.403052, 1491873184.405474, -0.996460, +1.450012, -0.339111, +7.934570, +84.304810, -116.653442
1491873184.405745, 1491873184.408172, -1.162903, +1.252625, -0.360535, +7.934570, +84.304810, -104.934692
1491873184.408443, 1491873184.410912, -1.162903, +1.252625, -0.360535, +5.477905, +82.946777, -105.377197
1491873184.411186, 1491873184.413606, -1.162903, +1.252625, -0.360535, +5.477905, +82.946777, -94.329834
1491873184.413875, 1491873184.416301, -1.162903, +1.252625, -0.219910, +3.021240, +71.640015, -94.329834
1491873184.416573, 1491873184.418995, -0.888245, +1.219482, -0.205444, +3.021240, +71.640015, -86.715698
1491873184.419265, 1491873184.421703, -0.888245, +1.219482, -0.205444, +1.220703, +56.579590, -86.715698
1491873184.422089, 1491873184.424516, -0.888245, +1.219482, -0.205444, +1.220703, +39.642334, -80.856323
1491873184.424789, 1491873184.427210, -0.841370, +1.006531, -0.230164, +0.640869, +39.642334, -80.856323
1491873184.427482, 1491873184.429908, -0.837158, +1.006531, -0.230164, +0.640869, +21.133423, -76.599121
1491873184.430189, 1491873184.432487, -0.837158, +1.006531, -0.230164, +1.098633, +21.133423, -76.599121
1491873184.432752, 1491873184.435052, -0.837158, +1.006531, -0.230164, +1.098633, +0.228882, -70.388794
1491873184.435312, 1491873184.437610, -0.847961, +0.829834, -0.329041, +2.304077, +0.228882, -70.388794
1491873184.437872, 1491873184.440173, -0.847961, +0.829834, -0.329041, +2.304077, -23.208618, -62.713623
1491873184.440437, 1491873184.442740, -0.847961, +0.829834, -0.329041, +4.211426, -20.385742, -62.713623
1491873184.443005, 1491873184.445304, -0.847961, +0.829834, -0.329041, +4.211426, -36.010742, -55.328369
1491873184.445568, 1491873184.447862, -0.663940, +0.681152, -0.312012, +4.760742, -35.415649, -55.328369
1491873184.448126, 1491873184.450500, -0.663940, +0.681152, -0.312012, +4.760742, -35.415649, -47.714233
1491873184.450772, 1491873184.453196, -0.663940, +0.681152, -0.312012, +4.898071, -44.418335, -47.714233
1491873184.453467, 1491873184.455890, -0.663940, +0.681152, -0.312012, +4.898071, -48.324585, -40.786743
1491873184.456161, 1491873184.458590, -0.430847, +0.543274, -0.143372, +3.936768, -48.782349, -40.786743
1491873184.458861, 1491873184.461298, -0.430847, +0.543274, -0.143372, +3.936768, -51.025391, -33.432007
1491873184.461570, 1491873184.463992, -0.430847, +0.543274, -0.143372, +3.097534, -51.025391, -33.432007
1491873184.464264, 1491873184.466693, -0.430847, +0.543274, -0.143372, +3.097534, -52.536011, -25.100708
1491873184.466965, 1491873184.469385, -0.325562, +0.426636, -0.039734, +2.944946, -52.536011, -25.100708
1491873184.469657, 1491873184.472097, -0.325562, +0.426636, -0.039734, +2.944946, -53.512573, -17.028809
1491873184.472369, 1491873184.474794, -0.325562, +0.426636, -0.039734, +3.128052, -53.512573, -17.028809
1491873184.475067, 1491873184.477493, -0.325562, +0.286011, -0.013184, +3.067017, -54.626465, -9.552002
1491873184.477762, 1491873184.480199, -0.210938, +0.299377, -0.013184, +3.067017, -54.626465, -9.552002
1491873184.480462, 1491873184.482757, -0.210938, +0.299377, -0.013184, +3.494263, -54.641724, -1.129150
1491873184.483020, 1491873184.485316, -0.210938, +0.299377, -0.013184, +3.494263, -54.641724, -1.129150
1491873184.485579, 1491873184.487880, -0.210938, +0.225403, +0.017944, +3.402710, -52.185059, +6.072998
1491873184.488141, 1491873184.490516, -0.014282, +0.225403, +0.017944, +3.402710, -52.185059, +6.072998
1491873184.490786, 1491873184.493218, -0.014282, +0.225403, +0.017944, +3.219604, -47.348022, +11.764526
1491873184.493489, 1491873184.495911, -0.014282, +0.225403, +0.017944, +3.219604, -47.348022, +11.764526
1491873184.496182, 1491873184.498604, +0.089172, +0.172119, +0.052185, +2.899170, -40.725708, +17.242432
1491873184.498876, 1491873184.501314, +0.089172, +0.172119, +0.052185, +2.899170, -40.725708, +17.242432
1491873184.501586, 1491873184.504007, +0.089172, +0.172119, +0.052185, +3.509521, -31.799316, +21.240234
1491873184.504279, 1491873184.506701, +0.089172, +0.172119, +0.052185, +3.509521, -31.799316, +21.240234
1491873184.506974, 1491873184.509402, +0.172852, +0.112427, +0.081848, +4.547119, -22.720337, +26.641846
1491873184.509674, 1491873184.512108, +0.172852, +0.112427, +0.081848, +4.547119, -22.720337, +26.641846
1491873184.512380, 1491873184.514806, +0.172852, +0.112427, +0.081848, +6.225586, -12.191772, +32.699585
1491873184.515077, 1491873184.517505, +0.172852, +0.112427, +0.081848, +6.225586, -12.191772, +32.699585
1491873184.517777, 1491873184.520205, +0.243896, +0.095581, +0.096863, +7.690430, -1.831055, +38.803101
1491873184.520476, 1491873184.522906, +0.243896, +0.095581, +0.096863, +7.690430, -1.831055, +38.803101
1491873184.523175, 1491873184.525598, +0.243896, +0.095581, +0.096863, +9.185791, +8.819580, +44.647217
1491873184.525977, 1491873184.528404, +0.243896, +0.046143, +0.073975, +9.185791, +8.819580, +44.647217
1491873184.528673, 1491873184.531063, +0.257080, +0.046143, +0.073975, +10.375977, +18.615723, +50.521851
1491873184.531332, 1491873184.533633, +0.257080, +0.046143, +0.073975, +10.375977, +18.615723, +50.521851
1491873184.533901, 1491873184.536205, +0.257080, +0.046143, +0.073975, +11.413574, +26.763916, +56.182861
1491873184.536472, 1491873184.538766, +0.257080, +0.032043, +0.084412, +11.413574, +26.763916, +56.182861
1491873184.539033, 1491873184.541412, +0.256714, +0.032043, +0.084412, +12.268066, +34.378052, +62.500000
1491873184.541688, 1491873184.544119, +0.256714, +0.032043, +0.084412, +12.268066, +34.378052, +62.500000
1491873184.544392, 1491873184.546813, +0.256714, +0.032043, +0.084412, +13.442993, +42.144775, +69.152832
1491873184.547087, 1491873184.549516, +0.270813, +0.039734, +0.036255, +13.442993, +42.144775, +69.152832
1491873184.549790, 1491873184.552223, +0.270813, +0.039734, +0.036255, +15.594482, +50.048828, +75.942993
1491873184.552499, 1491873184.554929, +0.270813, +0.039734, +0.036255, +15.594482, +50.048828, +75.942993
1491873184.555203, 1491873184.557628, +0.270813, +0.039734, +0.036255, +17.379761, +56.976318, +82.550049
1491873184.557902, 1491873184.560338, +0.289307, +0.076172, -0.019592, +17.379761, +56.976318, +82.550049
1491873184.560613, 1491873184.563038, +0.289307, +0.076172, -0.019592, +18.692017, +62.133789, +89.218140
1491873184.563311, 1491873184.565739, +0.289307, +0.076172, -0.019592, +18.692017, +62.133789, +89.218140
1491873184.566013, 1491873184.568432, +0.289307, +0.076172, -0.019592, +20.034790, +65.963745, +94.207764
1491873184.568707, 1491873184.571147, +0.240051, +0.142639, -0.013550, +20.034790, +65.963745, +98.114014
1491873184.571421, 1491873184.573850, +0.240051, +0.142639, -0.013550, +20.416260, +67.611694, +97.946167
1491873184.574125, 1491873184.576544, +0.240051, +0.142639, -0.013550, +20.416260, +67.611694, +102.828979
1491873184.576820, 1491873184.579248, +0.240051, +0.202515, +0.009888, +20.629883, +67.657471, +102.828979
1491873184.579525, 1491873184.581862, +0.108215, +0.202515, +0.009888, +20.629883, +67.657471, +108.047485
1491873184.582132, 1491873184.584428, +0.108215, +0.202515, +0.009888, +20.309448, +67.245483, +108.047485
1491873184.584696, 1491873184.586999, +0.108215, +0.202515, +0.009888, +20.309448, +67.245483, +113.998413
1491873184.587266, 1491873184.589558, +0.061340, +0.236206, +0.004761, +20.339966, +66.284180, +113.998413
1491873184.589826, 1491873184.592131, +0.062439, +0.236206, +0.004761, +20.339966, +66.284180, +117.904663
1491873184.592400, 1491873184.594703, +0.062439, +0.236206, +0.004761, +20.278931, +65.979004, +119.674683
1491873184.594969, 1491873184.597265, +0.062439, +0.236206, +0.004761, +20.278931, +65.979004, +119.674683
1491873184.597532, 1491873184.599834, +0.039185, +0.288391, +0.040833, +20.538330, +65.795898, +124.496460
1491873184.600110, 1491873184.602541, +0.039185, +0.288391, +0.040833, +20.538330, +65.795898, +124.496460
1491873184.602816, 1491873184.605243, +0.039185, +0.288391, +0.040833, +19.912720, +65.017700, +128.540039
1491873184.605518, 1491873184.607951, +0.039185, +0.288391, +0.040833, +19.912720, +65.017700, +132.446289
1491873184.608229, 1491873184.610695, -0.058411, +0.373718, +0.104004, +19.470215, +64.605713, +131.744385
1491873184.610970, 1491873184.613394, -0.058411, +0.373718, +0.104004, +19.470215, +64.605713, +133.987427
1491873184.613668, 1491873184.616096, -0.058411, +0.373718, +0.104004, +18.661499, +63.842773, +133.987427
1491873184.616372, 1491873184.618798, -0.058411, +0.373718, +0.104004, +18.661499, +63.842773, +135.864258
1491873184.619074, 1491873184.621514, -0.203247, +0.421875, +0.120117, +17.776489, +61.981201, +135.864258
1491873184.621790, 1491873184.624207, -0.203247, +0.421875, +0.120117, +17.776489, +61.981201, +137.298584
1491873184.624482, 1491873184.626907, -0.203247, +0.421875, +0.120117, +16.998291, +58.929443, +137.298584
1491873184.627183, 1491873184.629617, -0.203247, +0.421875, +0.118103, +16.998291, +53.878784, +137.298584
1491873184.629998, 1491873184.632299, -0.344604, +0.447876, +0.118103, +16.082764, +53.878784, +137.298584
1491873184.632565, 1491873184.634862, -0.344604, +0.447876, +0.118103, +16.082764, +47.271729, +137.405396
1491873184.635128, 1491873184.637428, -0.344604, +0.447876, +0.118103, +15.182495, +47.271729, +137.405396
1491873184.637694, 1491873184.639997, -0.344604, +0.480103, +0.115723, +15.182495, +39.459229, +136.795044
1491873184.640331, 1491873184.642758, -0.494568, +0.480103, +0.115723, +14.709473, +39.215088, +136.795044
1491873184.643033, 1491873184.645454, -0.494568, +0.480103, +0.115723, +14.709473, +30.471802, +135.131836
1491873184.645729, 1491873184.648151, -0.494568, +0.480103, +0.115723, +13.366699, +30.471802, +135.131836
1491873184.648425, 1491873184.650897, -0.595642, +0.532104, +0.099426, +13.366699, +22.155762, +132.919312
1491873184.651172, 1491873184.653595, -0.595642, +0.532104, +0.099426, +12.008667, +22.155762, +132.919312
1491873184.653868, 1491873184.656297, -0.595642, +0.532104, +0.099426, +10.833740, +15.747070, +129.974365
1491873184.656570, 1491873184.658998, -0.595642, +0.532104, +0.099426, +10.833740, +15.747070, +129.974365
1491873184.659273, 1491873184.661705, -0.672913, +0.674561, +0.102173, +9.613037, +11.169434, +126.205444
1491873184.661977, 1491873184.664399, -0.672913, +0.674561, +0.102173, +9.613037, +11.169434, +126.205444
1491873184.664672, 1491873184.667096, -0.672913, +0.674561, +0.102173, +7.675171, +8.071899, +121.566772
1491873184.667366, 1491873184.669793, -0.672913, +0.674561, +0.149048, +7.675171, +8.071899, +121.566772
1491873184.670072, 1491873184.672373, -0.771790, +0.783875, +0.146118, +5.783081, +5.889893, +116.500854
1491873184.672635, 1491873184.674929, -0.771790, +0.783875, +0.146118, +5.783081, +5.889893, +116.500854
1491873184.675192, 1491873184.677489, -0.771790, +0.783875, +0.146118, +2.929688, +4.501343, +110.778809
1491873184.677750, 1491873184.680102, -0.771790, +0.783875, +0.179993, +2.929688, +4.501343, +110.778809
1491873184.680371, 1491873184.682795, -0.892273, +0.899597, +0.179993, -0.778198, +4.104614, +104.812622
1491873184.683064, 1491873184.685493, -0.892273, +0.899597, +0.179993, -0.778198, +4.104614, +104.812622
1491873184.685761, 1491873184.688186, -0.892273, +0.899597, +0.179993, -2.685547, +5.676270, +98.007202
1491873184.688454, 1491873184.690890, -0.892273, +0.958557, +0.110229, -2.685547, +5.676270, +98.007202
1491873184.691162, 1491873184.693585, -1.077576, +0.958557, +0.110229, -3.234863, +9.506226, +90.652466
1491873184.693853, 1491873184.696277, -1.077576, +0.958557, +0.110229, -3.234863, +9.506226, +90.652466
1491873184.696545, 1491873184.698973, -1.077576, +0.958557, +0.110229, -3.692627, +12.756348, +82.885742
1491873184.699244, 1491873184.701645, -1.202454, +1.037842, +0.072876, -3.692627, +12.756348, +82.885742
1491873184.701908, 1491873184.704202, -1.202454, +1.037842, +0.072876, -4.364014, +13.992310, +74.447632
1491873184.704464, 1491873184.706769, -1.202454, +1.037842, +0.072876, -4.364014, +13.992310, +74.447632
1491873184.707033, 1491873184.709331, -1.202454, +1.037842, +0.072876, -4.608154, +13.504028, +64.682007
1491873184.709593, 1491873184.712013, -1.287415, +1.080322, +0.060425, -4.608154, +13.504028, +64.682007
1491873184.712288, 1491873184.714719, -1.287415, +1.080322, +0.060425, -4.470825, +12.298584, +54.382324
1491873184.714988, 1491873184.717406, -1.287415, +1.080322, +0.060425, -4.470825, +12.298584, +54.382324
1491873184.717675, 1491873184.720110, -1.287415, +1.080322, +0.060425, -4.409790, +11.856079, +43.853760
1491873184.720373, 1491873184.722674, -1.336304, +1.106506, +0.064087, -4.409790, +11.856079, +43.853760
1491873184.722936, 1491873184.725230, -1.336304, +1.106506, +0.064087, -5.065918, +11.322021, +33.798218
1491873184.725492, 1491873184.727788, -1.336304, +1.106506, +0.064087, -5.065918, +11.322021, +33.798218
1491873184.728051, 1491873184.730394, -1.336304, +1.106506, +0.064087, -6.759644, +8.636475, +23.635864
1491873184.730771, 1491873184.733193, -1.431335, +1.073181, +0.086060, -6.759644, +8.636475, +23.635864
1491873184.733462, 1491873184.735887, -1.431335, +1.073181, +0.086060, -8.422852, +4.425049, +14.404297
1491873184.736155, 1491873184.738582, -1.431335, +1.073181, +0.086060, -8.422852, +4.425049, +14.404297
1491873184.738849, 1491873184.741318, -1.431335, +1.073181, +0.103821, -9.765625, -0.762939, +7.080078
1491873184.741584, 1491873184.744009, -1.400940, +1.054504, +0.103821, -9.765625, -0.762939, +7.080078
1491873184.744275, 1491873184.746701, -1.400940, +1.054504, +0.103821, -10.818481, -6.469727, +0.717163
1491873184.746970, 1491873184.749400, -1.400940, +1.054504, +0.103821, -10.818481, -6.469727, +0.717163
1491873184.749669, 1491873184.752103, -1.218567, +1.081970, +0.066650, -11.642456, -10.238647, -5.508423
1491873184.752372, 1491873184.754801, -1.218567, +1.081970, +0.066650, -11.642456, -10.238647, -5.508423
1491873184.755072, 1491873184.757504, -1.218567, +1.081970, +0.066650, -12.039185, -11.840820, -11.505127
1491873184.757775, 1491873184.760199, -1.218567, +1.081970, +0.066650, -12.039185, -11.840820, -11.505127
1491873184.760473, 1491873184.762901, -0.986023, +1.091309, +0.003296, -11.566162, -10.650635, -17.913818
1491873184.763176, 1491873184.765605, -0.986023, +1.091309, +0.003296, -11.566162, -10.650635, -17.913818
1491873184.765880, 1491873184.768299, -0.986023, +1.091309, +0.003296, -11.535645, -8.987427, -23.651123
1491873184.768574, 1491873184.770966, -0.986023, +1.091309, +0.003296, -11.535645, -8.987427, -27.557373
1491873184.771230, 1491873184.773525, -1.018433, +1.092224, +0.023254, -10.818481, -3.570557, -30.258179
1491873184.773787, 1491873184.776089, -1.018433, +1.092224, +0.023254, -10.818481, -3.570557, -30.258179
1491873184.776352, 1491873184.778655, -1.018433, +1.092224, +0.023254, -10.726929, -0.503540, -51.635742
1491873184.778920, 1491873184.781338, -1.018433, +1.092224, +0.023254, -10.726929, -0.503540, -51.635742
1491873184.781609, 1491873184.784031, -2.690918, +1.955750, -0.321350, -7.339478, -23.376465, -56.808472
1491873184.784301, 1491873184.786728, -2.690918, +1.955750, -0.321350, -7.339478, -23.376465, -25.558472
1491873184.786998, 1491873184.789418, -2.690918, +1.955750, -0.321350, -3.997803, -27.282715, -27.206421
1491873184.789687, 1491873184.792130, -2.690918, +1.393250, -0.722900, -3.997803, -27.282715, -31.112671
1491873184.792400, 1491873184.794821, -0.641418, +1.393616, -0.722900, -2.471924, -7.522583, -29.281616
1491873184.795090, 1491873184.797517, -0.641418, +1.393616, -0.722900, -2.471924, -7.522583, -37.307739
1491873184.797784, 1491873184.800218, -0.641418, +1.393616, -0.722900, +8.300781, +2.655029, -37.307739
1491873184.800487, 1491873184.802910, -0.013000, +1.365601, -0.677490, +8.300781, +2.655029, -35.476685
1491873184.803179, 1491873184.805601, -0.013000, +1.365601, -0.677490, +9.216309, -15.548706, -35.476685
1491873184.805873, 1491873184.808296, -0.013000, +1.365601, -0.677490, +9.216309, -19.454956, -34.484863
1491873184.808567, 1491873184.811008, -0.013000, +1.365601, -0.677490, +2.685547, -18.692017, -34.484863
1491873184.811280, 1491873184.813710, +0.560303, +1.120789, -0.311646, +2.685547, -10.131836, -35.415649
1491873184.813983, 1491873184.816408, +0.560303, +1.120789, -0.311646, -0.671387, -10.131836, -35.415649
1491873184.816680, 1491873184.819099, +0.560303, +1.120789, -0.311646, -0.671387, -2.685547, -37.796021
1491873184.819366, 1491873184.821724, +0.560303, +1.120789, -0.311646, +1.770020, -2.685547, -37.796021
1491873184.821986, 1491873184.824284, +0.023254, +0.911499, -0.181824, +1.770020, +0.671387, -39.413452
1491873184.824545, 1491873184.826844, +0.023254, +0.911499, -0.181824, +5.340576, +0.671387, -39.413452
1491873184.827104, 1491873184.829408, +0.023254, +0.911499, -0.181824, +5.340576, -7.141113, -37.811279
1491873184.829670, 1491873184.832010, +0.023254, +0.911499, -0.228699, +6.027222, -4.760742, -37.811279
1491873184.832272, 1491873184.834569, -0.549683, +0.966797, -0.223022, +6.027222, -16.479492, -33.462524
1491873184.834833, 1491873184.837127, -0.549683, +0.966797, -0.223022, +3.570557, -15.640259, -33.462524
1491873184.837496, 1491873184.839790, -0.549683, +0.966797, -0.223022, +3.570557, -23.452759, -29.281616
1491873184.840093, 1491873184.842524, -0.549683, +0.966797, -0.066650, +2.532959, -25.009155, -29.281616
1491873184.842795, 1491873184.845222, -0.490173, +0.968262, -0.066650, +2.532959, -28.915405, -25.680542
1491873184.845492, 1491873184.847916, -0.490173, +0.968262, -0.066650, +3.387451, -30.014038, -25.680542
1491873184.848186, 1491873184.850618, -0.490173, +0.968262, -0.066650, +3.387451, -32.043457, -23.071289
1491873184.850891, 1491873184.853321, -0.490173, +0.781128, +0.091736, +3.967285, -32.043457, -23.071289
1491873184.853592, 1491873184.856024, -0.290222, +0.781128, +0.091736, +0.061035, -30.990601, -21.072388
1491873184.856297, 1491873184.858722, -0.290222, +0.781128, +0.091736, +3.387451, -30.990601, -21.072388
1491873184.858993, 1491873184.861422, -0.290222, +0.781128, +0.091736, +3.982544, -25.680542, -20.614624
1491873184.861694, 1491873184.864124, -0.230347, +0.776001, +0.229065, +3.982544, -25.680542, -20.614624
1491873184.864396, 1491873184.866826, -0.230347, +0.776001, +0.229065, +5.523682, -18.508911, -21.118164
1491873184.867095, 1491873184.869514, -0.230347, +0.776001, +0.229065, +5.523682, -18.508911, -21.118164
1491873184.869786, 1491873184.872104, -0.230347, +0.776001, +0.229065, +4.898071, -13.534546, -21.362305
1491873184.872367, 1491873184.874667, -0.347900, +0.947571, +0.180542, +4.898071, -13.534546, -21.362305
1491873184.874929, 1491873184.877232, -0.347900, +0.947571, +0.180542, +1.968384, -13.198853, -21.301270
1491873184.877495, 1491873184.879795, -0.347900, +0.947571, +0.180542, +1.968384, -13.198853, -21.301270
1491873184.880092, 1491873184.882516, -0.347900, +0.947571, +0.180542, +0.244141, -13.092041, -21.774292
1491873184.882787, 1491873184.885216, -0.448975, +0.971741, -0.060242, +0.244141, -13.092041, -21.774292
1491873184.885489, 1491873184.887913, -0.448975, +0.971741, -0.060242, +2.426147, -12.893677, -21.591187
1491873184.888184, 1491873184.890611, -0.448975, +0.971741, -0.060242, +2.426147, -12.893677, -21.591187
1491873184.890884, 1491873184.893313, -0.448975, +0.971741, -0.393860, +5.401611, -14.755249, -19.836426
1491873184.893583, 1491873184.896007, -0.343506, +1.128845, -0.393860, +5.401611, -14.755249, -19.836426
1491873184.896278, 1491873184.898701, -0.343506, +1.128845, -0.393860, +7.278442, -14.709473, -16.143799
1491873184.898974, 1491873184.901411, -0.343506, +1.128845, -0.393860, +7.278442, -14.709473, -16.143799
1491873184.901684, 1491873184.904106, -0.202881, +1.357727, -0.601685, +7.873535, -13.580322, -14.785767
1491873184.904377, 1491873184.906810, -0.203796, +1.357727, -0.601685, +7.873535, -13.580322, -14.785767
1491873184.907080, 1491873184.909502, -0.203796, +1.357727, -0.601685, +7.186890, -15.777588, -14.389038
1491873184.909773, 1491873184.912107, -0.203796, +1.357727, -0.601685, +7.186890, -15.777588, -14.389038
1491873184.912371, 1491873184.914678, -0.245544, +1.414673, -0.539795, +5.157471, -17.486572, -14.450073
1491873184.914943, 1491873184.917237, -0.245544, +1.414673, -0.539795, +5.157471, -17.486572, -14.450073
1491873184.917500, 1491873184.919802, -0.245544, +1.414673, -0.539795, +2.517700, -18.524170, -14.663696
1491873184.920098, 1491873184.922521, -0.245544, +1.414673, -0.539795, +2.517700, -18.524170, -14.663696
1491873184.922792, 1491873184.925221, -0.387634, +1.253540, -0.136047, +0.015259, -18.600464, -14.175415
1491873184.925493, 1491873184.927917, -0.387634, +1.253540, -0.136047, +0.015259, -18.600464, -14.175415
1491873184.928188, 1491873184.930607, -0.387634, +1.253540, -0.136047, -1.083374, -17.196655, -13.214111
1491873184.930880, 1491873184.933310, -0.387634, +1.253540, -0.136047, -1.083374, -17.196655, -13.214111
1491873184.933581, 1491873184.936007, -0.487976, +0.980713, +0.180359, -1.419067, -15.609741, -11.749268
1491873184.936279, 1491873184.938700, -0.487976, +0.980713, +0.180359, -1.419067, -15.609741, -11.749268
1491873184.938972, 1491873184.941409, -0.487976, +0.980713, +0.180359, -1.174927, -13.595581, -9.674072
1491873184.941785, 1491873184.944209, -0.487976, +0.933838, +0.173950, -1.174927, -13.595581, -9.674072
1491873184.944477, 1491873184.946900, -0.530090, +0.909851, +0.173950, -0.183105, -10.284424, -7.019043
1491873184.947168, 1491873184.949594, -0.530090, +0.909851, +0.173950, -0.183105, -10.284424, -7.019043
1491873184.949864, 1491873184.952182, -0.530090, +0.909851, +0.173950, +0.305176, -6.042480, -3.875732
1491873184.952440, 1491873184.954738, -0.483215, +0.912598, -0.057495, +0.305176, -6.042480, -3.875732
1491873184.954996, 1491873184.957296, -0.495300, +0.912598, -0.057495, +0.808716, -1.754761, -0.457764
1491873184.957555, 1491873184.959853, -0.495300, +0.912598, -0.057495, +0.808716, -1.754761, -0.457764
1491873184.960118, 1491873184.962422, -0.495300, +0.912598, -0.057495, +0.976562, -0.747681, +2.853394
1491873184.962682, 1491873184.964975, -0.448425, +0.992981, -0.220825, +0.976562, -0.747681, +2.853394
1491873184.965232, 1491873184.967524, -0.445862, +0.992981, -0.220825, +1.159668, -1.174927, +5.279541
1491873184.967781, 1491873184.970120, -0.445862, +0.992981, -0.220825, +1.159668, -1.174927, +5.279541
1491873184.970388, 1491873184.972810, -0.445862, +0.992981, -0.220825, +0.930786, -1.022339, +7.568359
1491873184.973075, 1491873184.975491, -0.389832, +1.078674, -0.216064, +0.930786, -1.022339, +7.568359
1491873184.975755, 1491873184.978178, -0.389832, +1.078674, -0.216064, +0.701904, -1.144409, +8.819580
1491873184.978444, 1491873184.980913, -0.389832, +1.078674, -0.216064, +0.701904, -1.144409, +8.819580
1491873184.981178, 1491873184.983608, -0.389832, +1.078674, -0.216064, +0.747681, +0.259399, +9.979248
1491873184.983872, 1491873184.986918, -0.362366, +1.061279, -0.112427, +0.747681, +0.259399, +11.230469
1491873184.987185, 1491873184.989476, -0.362366, +1.061279, -0.112427, +1.419067, +3.952026, +11.230469
1491873184.989739, 1491873184.992081, -0.362366, +1.061279, -0.112427, +1.419067, +3.952026, +12.496948
1491873184.992344, 1491873184.994636, -0.362366, +1.061279, -0.045227, +2.624512, +8.804321, +12.496948
1491873184.994898, 1491873184.997193, -0.379211, +1.034729, -0.045227, +2.624512, +8.804321, +12.496948
1491873184.997454, 1491873184.999749, -0.379211, +1.034729, -0.045227, +3.631592, +12.268066, +13.702393
1491873185.000011, 1491873185.002307, -0.379211, +1.034729, -0.045227, +3.631592, +12.268066, +13.702393
1491873185.002570, 1491873185.004860, -0.379211, +1.034729, -0.094666, +4.730225, +13.824463, +14.968872
1491873185.005123, 1491873185.007417, -0.384155, +1.016968, -0.094666, +4.730225, +13.824463, +14.968872
1491873185.007680, 1491873185.009975, -0.384155, +1.016968, -0.094666, +4.959106, +15.380859, +16.052246
1491873185.010316, 1491873185.012610, -0.384155, +1.016968, -0.094666, +4.959106, +15.380859, +16.052246
1491873185.012874, 1491873185.015168, -0.384155, +1.016968, -0.163513, +4.821777, +17.318726, +17.166138
1491873185.015431, 1491873185.017723, -0.370789, +1.010742, -0.163513, +4.821777, +17.318726, +17.166138
1491873185.017985, 1491873185.020337, -0.370789, +1.010742, -0.163513, +4.074097, +19.607544, +17.730713
1491873185.020609, 1491873185.023034, -0.370789, +1.010742, -0.163513, +4.074097, +19.607544, +17.730713
1491873185.023308, 1491873185.025734, -0.370789, +0.998657, -0.197754, +4.013062, +20.828247, +19.287109
1491873185.026006, 1491873185.028427, -0.416931, +0.998657, -0.197754, +4.013062, +20.828247, +19.287109
1491873185.028698, 1491873185.031135, -0.416931, +0.998657, -0.197754, +4.165649, +20.080566, +21.408081
1491873185.031405, 1491873185.033829, -0.416931, +0.998657, -0.197754, +4.165649, +20.080566, +21.408081
1491873185.034099, 1491873185.036526, -0.386902, +1.020813, -0.130920, +4.119873, +19.271851, +23.208618
1491873185.036799, 1491873185.039229, -0.386902, +1.020813, -0.130920, +4.119873, +19.271851, +27.114868
1491873185.039499, 1491873185.041841, -0.386902, +1.020813, -0.130920, +4.394531, +20.202637, +24.581909
1491873185.042106, 1491873185.044410, -0.386902, +1.020813, -0.130920, +4.394531, +20.202637, +24.581909
1491873185.044788, 1491873185.047091, -0.379395, +1.005432, -0.100708, +5.020142, +22.064209, +26.138306
1491873185.047356, 1491873185.049659, -0.379395, +1.005432, -0.100708, +5.020142, +22.064209, +26.138306
1491873185.049924, 1491873185.052356, -0.379395, +1.005432, -0.100708, +5.401611, +23.117065, +27.481079
1491873185.052629, 1491873185.055057, -0.379395, +1.005432, -0.100708, +5.401611, +23.117065, +27.481079
1491873185.055330, 1491873185.057753, -0.418213, +1.051208, -0.086792, +6.759644, +22.201538, +29.434204
1491873185.058025, 1491873185.060488, -0.418213, +1.051208, -0.086792, +6.759644, +22.201538, +30.929565
1491873185.060760, 1491873185.063188, -0.418213, +1.051208, -0.086792, +7.858276, +19.531250, +30.929565
1491873185.063459, 1491873185.065885, -0.418213, +1.051208, -0.080750, +7.858276, +19.531250, +32.318115
1491873185.066157, 1491873185.068585, -0.365662, +1.047729, -0.080750, +8.956909, +17.364502, +32.318115
1491873185.068857, 1491873185.071295, -0.365662, +1.047729, -0.080750, +8.956909, +17.364502, +33.370972
1491873185.071570, 1491873185.073991, -0.365662, +1.047729, -0.080750, +9.963989, +15.686035, +33.370972
1491873185.074264, 1491873185.076689, -0.365662, +1.025574, -0.137146, +9.963989, +11.779785, +34.088135
1491873185.076958, 1491873185.079379, -0.345886, +1.025574, -0.137146, +10.864258, +14.251709, +34.088135
1491873185.079653, 1491873185.082117, -0.345886, +1.025574, -0.137146, +10.864258, +13.778687, +34.713745
1491873185.082389, 1491873185.084816, -0.345886, +1.025574, -0.137146, +11.352539, +13.778687, +34.713745
1491873185.085089, 1491873185.087514, -0.364746, +0.986023, -0.139893, +15.258789, +13.366699, +35.507202
1491873185.087787, 1491873185.090226, -0.364746, +0.986023, -0.139893, +12.390137, +13.366699, +35.507202
1491873185.090493, 1491873185.092794, -0.364746, +0.986023, -0.139893, +13.717651, +12.039185, +36.895752
1491873185.093059, 1491873185.095362, -0.364746, +0.986023, -0.139893, +13.717651, +12.039185, +36.895752
1491873185.095627, 1491873185.097929, -0.363281, +1.036011, -0.091736, +13.717651, +10.971069, +38.040161
1491873185.098197, 1491873185.100524, -0.363281, +1.036011, -0.091736, +15.274048, +10.971069, +38.040161
1491873185.100791, 1491873185.103085, -0.363281, +1.036011, -0.091736, +15.274048, +11.032104, +39.474487
1491873185.103352, 1491873185.105655, -0.363281, +1.036011, -0.091736, +16.815186, +11.032104, +39.474487
1491873185.105922, 1491873185.108223, -0.293701, +1.069336, -0.072510, +16.815186, +10.070801, +39.947510
1491873185.108490, 1491873185.110832, -0.293701, +1.069336, -0.072510, +17.883301, +10.070801, +39.947510
1491873185.111106, 1491873185.113536, -0.293701, +1.069336, -0.072510, +17.883301, +11.077881, +40.237427
1491873185.113811, 1491873185.116235, -0.293701, +1.069336, -0.119385, +18.905640, +11.077881, +40.237427
1491873185.116509, 1491873185.118934, -0.302856, +1.073547, -0.120483, +18.905640, +11.764526, +41.076660
1491873185.119208, 1491873185.121639, -0.302856, +1.073547, -0.120483, +19.332886, +11.764526, +41.076660
1491873185.121913, 1491873185.124335, -0.302856, +1.073547, -0.120483, +19.332886, +11.444092, +41.549683
1491873185.124609, 1491873185.127033, -0.302856, +1.078674, -0.137878, +19.515991, +11.444092, +41.549683
1491873185.127307, 1491873185.129730, -0.315491, +1.078674, -0.137878, +19.775391, +9.933472, +41.854858
1491873185.130001, 1491873185.132431, -0.315491, +1.078674, -0.137878, +19.775391, +9.933472, +41.854858
1491873185.132704, 1491873185.135127, -0.315491, +1.078674, -0.137878, +20.126343, +8.407593, +42.373657
1491873185.135396, 1491873185.137819, -0.254150, +1.065857, -0.161865, +20.126343, +8.407593, +42.373657
1491873185.138090, 1491873185.140528, -0.254150, +1.065857, -0.161865, +20.431519, +7.080078, +42.694092
1491873185.140799, 1491873185.143225, -0.254150, +1.065857, -0.161865, +20.431519, +7.080078, +42.694092
1491873185.143496, 1491873185.145920, -0.254150, +1.065857, -0.161865, +20.233154, +6.576538, +43.197632
1491873185.146191, 1491873185.148617, -0.285461, +1.037109, -0.203979, +20.233154, +6.576538, +43.197632
1491873185.149003, 1491873185.151366, -0.285461, +1.037109, -0.203979, +18.737793, +5.676270, +43.395996
1491873185.151629, 1491873185.153929, -0.285461, +1.037109, -0.203979, +18.737793, +5.676270, +43.395996
1491873185.154191, 1491873185.156490, -0.285461, +1.037109, -0.203979, +18.310547, +3.189087, +44.219971
1491873185.156754, 1491873185.159054, -0.279785, +1.033264, -0.186218, +18.310547, +3.189087, +44.219971
1491873185.159316, 1491873185.161752, -0.279785, +1.033264, -0.186218, +18.188477, +0.213623, +44.921875
1491873185.162024, 1491873185.164440, -0.279785, +1.033264, -0.186218, +18.188477, +0.213623, +44.921875
1491873185.164712, 1491873185.167132, -0.279785, +1.033264, -0.175964, +17.776489, -2.044678, +45.150757
1491873185.167403, 1491873185.169832, -0.245178, +1.026855, -0.175964, +17.776489, -2.044678, +45.150757
1491873185.170111, 1491873185.172537, -0.245178, +1.026855, -0.175964, +17.669678, -2.059937, +45.578003
1491873185.172807, 1491873185.175232, -0.245178, +1.026855, -0.175964, +17.669678, -2.059937, +45.578003
1491873185.175503, 1491873185.177927, -0.245178, +1.025208, -0.182922, +16.983032, -0.946045, +45.928955
1491873185.178202, 1491873185.181151, -0.246460, +1.025208, -0.182922, +16.983032, -0.946045, +45.928955
1491873185.181420, 1491873185.183718, -0.246460, +1.025208, -0.182922, +17.333984, -0.518799, +46.066284
1491873185.183982, 1491873185.186278, -0.246460, +1.025208, -0.182922, +17.333984, -0.518799, +46.066284
1491873185.186540, 1491873185.188829, -0.190063, +1.027039, -0.185852, +16.845703, -2.197266, +45.623779
1491873185.189093, 1491873185.191648, -0.190063, +1.027039, -0.185852, +16.845703, -2.197266, +45.623779
1491873185.191912, 1491873185.194208, -0.190063, +1.027039, -0.185852, +17.257690, -3.570557, +45.150757
1491873185.194471, 1491873185.196765, -0.190063, +1.027039, -0.185852, +17.257690, -3.570557, +45.150757
1491873185.197028, 1491873185.199321, -0.177979, +1.031067, -0.241333, +17.883301, -1.251221, +45.745850
1491873185.199585, 1491873185.201981, -0.177979, +1.031067, -0.241333, +17.883301, -1.251221, +45.745850
1491873185.202245, 1491873185.204537, -0.177979, +1.031067, -0.241333, +16.769409, +2.822876, +44.708252
1491873185.204801, 1491873185.207094, -0.177979, +1.031067, -0.241333, +16.769409, +2.822876, +44.708252
1491873185.207356, 1491873185.209645, -0.140991, +1.002686, -0.234009, +14.862061, +4.638672, +43.136597
1491873185.209908, 1491873185.212237, -0.140991, +1.002686, -0.234009, +14.862061, +4.638672, +43.136597
1491873185.212501, 1491873185.214794, -0.140991, +1.002686, -0.234009, +13.031006, +5.050659, +42.160034
1491873185.215058, 1491873185.217347, -0.140991, +1.002686, -0.234009, +13.031006, +5.050659, +42.160034
1491873185.217613, 1491873185.219899, -0.175781, +0.969360, -0.298096, +12.969971, +10.696411, +42.251587
1491873185.220164, 1491873185.222487, -0.175781, +0.969360, -0.298096, +12.969971, +10.696411, +42.251587
1491873185.222754, 1491873185.225052, -0.175781, +0.969360, -0.298096, +12.405396, +19.729614, +43.395996
1491873185.225320, 1491873185.227612, -0.175781, +0.969360, -0.298096, +12.405396, +19.729614, +43.395996
1491873185.227879, 1491873185.230186, -0.145203, +0.957825, -0.230164, +8.804321, +20.202637, +43.426514
1491873185.230459, 1491873185.232889, -0.145203, +0.957825, -0.230164, +8.804321, +20.202637, +43.426514
1491873185.233162, 1491873185.235583, -0.145203, +0.957825, -0.230164, +5.859375, +11.032104, +40.832520
1491873185.235854, 1491873185.238274, -0.145203, +0.957825, -0.134216, +5.859375, +11.032104, +40.832520
1491873185.238546, 1491873185.240977, -0.087891, +0.919189, -0.134216, +5.859375, +3.829956, +37.322998
1491873185.241246, 1491873185.243676, -0.087891, +0.919189, -0.134216, +5.859375, +3.829956, +37.322998
1491873185.243945, 1491873185.246371, -0.087891, +0.919189, -0.134216, +6.088257, +2.044678, +34.698486
1491873185.246641, 1491873185.249064, -0.134766, +0.933472, -0.195923, +6.088257, +2.044678, +34.698486
1491873185.249331, 1491873185.251682, -0.106934, +0.933472, -0.195923, +4.913330, +0.625610, +32.669067
1491873185.252056, 1491873185.254361, -0.106934, +0.933472, -0.195923, +4.913330, +0.625610, +32.669067
1491873185.254623, 1491873185.256926, -0.106934, +0.933472, -0.195923, +3.921509, -2.120972, +30.166626
1491873185.257187, 1491873185.259487, -0.023254, +0.986389, -0.203613, +3.921509, -2.120972, +30.166626
1491873185.259748, 1491873185.262230, -0.023254, +0.986389, -0.203613, +2.456665, -0.930786, +28.060913
1491873185.262500, 1491873185.264908, -0.023254, +0.986389, -0.203613, +2.456665, -0.930786, +28.060913
1491873185.265175, 1491873185.267585, -0.023254, +0.986389, -0.203613, +0.717163, +3.753662, +25.833130
1491873185.267853, 1491873185.270299, -0.102905, +0.993713, -0.282715, +0.717163, +3.753662, +25.833130
1491873185.270569, 1491873185.272978, -0.102905, +0.993713, -0.282715, -1.495361, +4.028320, +22.964478
1491873185.273246, 1491873185.275660, -0.102905, +0.993713, -0.282715, -1.495361, +4.028320, +22.964478
1491873185.275928, 1491873185.278333, -0.102905, +0.993713, -0.282715, -2.502441, +0.152588, +20.645142
1491873185.278602, 1491873185.281014, -0.145203, +0.949951, -0.262573, -2.502441, +0.152588, +20.645142
1491873185.281282, 1491873185.283693, -0.145203, +0.949951, -0.262573, -2.456665, -3.387451, +18.432617
1491873185.283961, 1491873185.286370, -0.145203, +0.949951, -0.262573, -2.456665, -3.387451, +18.432617
1491873185.286637, 1491873185.289053, -0.145203, +0.949951, -0.250854, -2.151489, -5.126953, +15.167236
1491873185.289319, 1491873185.291738, -0.068481, +0.938232, -0.250854, -2.151489, -5.126953, +15.167236
1491873185.292005, 1491873185.294419, -0.068481, +0.938232, -0.250854, -3.280640, -5.432129, +12.405396
1491873185.294687, 1491873185.297097, -0.068481, +0.938232, -0.250854, -3.280640, -5.432129, +9.613037
1491873185.297363, 1491873185.299779, -0.068481, +0.979980, -0.251587, -4.287720, -4.180908, +9.613037
1491873185.300084, 1491873185.302474, -0.051819, +0.979980, -0.251587, -4.287720, -4.180908, +5.935669
1491873185.302737, 1491873185.305128, -0.051819, +0.979980, -0.251587, -4.928589, -4.730225, +5.935669
1491873185.305388, 1491873185.307824, -0.051819, +0.979980, -0.251587, -4.928589, -4.730225, +3.128052
1491873185.308089, 1491873185.310552, -0.041565, +1.022461, -0.231079, -5.172729, -6.484985, +3.128052
1491873185.310816, 1491873185.313244, -0.041565, +1.022461, -0.231079, -5.172729, -6.484985, +0.076294
1491873185.313509, 1491873185.315930, -0.041565, +1.022461, -0.231079, -5.966187, -7.492065, +0.076294
1491873185.316196, 1491873185.318622, -0.041565, +1.022461, -0.231079, -5.966187, -11.398315, -3.433228
1491873185.318888, 1491873185.321328, -0.058044, +1.076294, -0.191711, -7.492065, -7.843018, -3.433228
1491873185.321590, 1491873185.324017, -0.058044, +1.076294, -0.191711, -7.492065, -9.185791, -7.095337
1491873185.324281, 1491873185.326698, -0.058044, +1.076294, -0.191711, -8.590698, -9.185791, -7.095337
1491873185.326965, 1491873185.329386, -0.058044, +1.076294, -0.191711, -8.590698, -9.552002, -10.269165
1491873185.329655, 1491873185.332025, +0.013184, +1.065308, -0.192444, -9.078979, -9.552002, -10.269165
1491873185.332287, 1491873185.334588, +0.013184, +1.065308, -0.192444, -9.078979, -9.124756, -13.778687
1491873185.334849, 1491873185.337149, +0.013184, +1.065308, -0.192444, -8.972168, -9.124756, -13.778687
1491873185.337410, 1491873185.339709, +0.013184, +1.065308, -0.244629, -8.972168, -9.170532, -17.562866
1491873185.339969, 1491873185.342387, -0.009705, +1.061646, -0.244629, -9.399414, -9.170532, -17.562866
1491873185.342658, 1491873185.345082, -0.009705, +1.061646, -0.244629, -9.399414, -10.086060, -20.858765
1491873185.345353, 1491873185.347776, -0.009705, +1.061646, -0.244629, -10.162354, -10.086060, -20.858765
1491873185.348053, 1491873185.350473, -0.103455, +1.087463, -0.190979, -10.162354, -13.290405, -23.727417
1491873185.350741, 1491873185.353041, -0.106384, +1.087463, -0.190979, -10.513306, -13.290405, -23.727417
1491873185.353309, 1491873185.355609, -0.106384, +1.087463, -0.190979, -10.513306, -16.632080, -26.321411
1491873185.355985, 1491873185.358288, -0.106384, +1.087463, -0.190979, -11.001587, -16.632080, -26.321411
1491873185.358555, 1491873185.360942, -0.010620, +1.112366, -0.139893, -11.001587, -18.753052, -29.190063
1491873185.361217, 1491873185.363647, -0.010620, +1.112366, -0.139893, -11.093140, -18.753052, -29.190063
1491873185.363923, 1491873185.366350, -0.010620, +1.112366, -0.139893, -11.688232, -18.997192, -32.485962
1491873185.366623, 1491873185.369045, -0.010620, +1.112366, -0.139893, -11.688232, -18.997192, -32.485962
1491873185.369319, 1491873185.371748, +0.027466, +1.133423, -0.198669, -13.259888, -19.577026, -36.117554
1491873185.372021, 1491873185.374446, +0.027466, +1.133423, -0.198669, -13.259888, -19.577026, -36.117554
1491873185.374717, 1491873185.377141, +0.027466, +1.133423, -0.198669, -15.533447, -20.629883, -39.321899
1491873185.377414, 1491873185.379834, +0.027466, +1.133423, -0.198669, -15.533447, -20.629883, -39.321899
1491873185.380116, 1491873185.382542, -0.053650, +1.213806, -0.277771, -18.188477, -23.681641, -42.556763
1491873185.382817, 1491873185.385239, -0.053650, +1.213806, -0.277771, -18.188477, -23.681641, -42.556763
1491873185.385513, 1491873185.387938, -0.053650, +1.213806, -0.277771, -21.148682, -27.481079, -45.654297
1491873185.388212, 1491873185.390698, -0.053650, +1.260681, -0.325928, -21.148682, -27.481079, -45.654297
1491873185.390971, 1491873185.393392, -0.132202, +1.255005, -0.325928, -24.383545, -31.448364, -48.156738
1491873185.393665, 1491873185.396087, -0.132202, +1.255005, -0.325928, -24.383545, -31.448364, -48.156738
1491873185.396360, 1491873185.398780, -0.132202, +1.255005, -0.325928, -27.389526, -36.453247, -50.567627
1491873185.399053, 1491873185.401416, -0.154541, +1.227905, -0.310181, -27.389526, -36.453247, -50.567627
1491873185.401682, 1491873185.403983, -0.154541, +1.227905, -0.310181, -29.312134, -41.610718, -53.283691
1491873185.404248, 1491873185.406548, -0.154541, +1.227905, -0.310181, -29.312134, -41.610718, -53.283691
1491873185.406814, 1491873185.409113, -0.154541, +1.227905, -0.310181, -31.356812, -47.286987, -54.901123
1491873185.409379, 1491873185.411784, -0.175415, +1.272583, -0.283630, -31.356812, -47.286987, -54.901123
1491873185.412059, 1491873185.414479, -0.175415, +1.272583, -0.283630, -32.516479, -52.215576, -56.182861
1491873185.414751, 1491873185.417174, -0.175415, +1.272583, -0.283630, -32.516479, -52.215576, -56.182861
1491873185.417446, 1491873185.419872, -0.175415, +1.272583, -0.283630, -34.744263, -55.252075, -57.556152
1491873185.420155, 1491873185.422581, -0.107483, +1.315247, -0.242798, -34.744263, -55.252075, -57.556152
1491873185.422856, 1491873185.425281, -0.107483, +1.315247, -0.242798, -37.490845, -56.533813, -59.249878
1491873185.425556, 1491873185.427977, -0.107483, +1.315247, -0.242798, -37.490845, -56.533813, -59.249878
1491873185.428251, 1491873185.430689, -0.107483, +1.315247, -0.242798, -39.108276, -56.900024, -61.553955
1491873185.430962, 1491873185.433388, -0.098511, +1.373291, -0.138245, -39.108276, -56.900024, -61.553955
1491873185.433662, 1491873185.436089, -0.098511, +1.373291, -0.138245, -41.305542, -58.410645, -62.484741
1491873185.436364, 1491873185.438788, -0.098511, +1.373291, -0.138245, -41.305542, -58.410645, -62.484741
1491873185.439062, 1491873185.441525, -0.098511, +1.513916, -0.071594, -43.304443, -60.241699, -62.515259
1491873185.441798, 1491873185.444224, -0.006592, +1.539734, -0.071594, -43.304443, -60.241699, -62.515259
1491873185.444497, 1491873185.446921, -0.006592, +1.539734, -0.071594, -45.379639, -57.983398, -63.201904
1491873185.447196, 1491873185.449619, -0.006592, +1.539734, -0.071594, -45.379639, -57.983398, -63.201904
1491873185.449894, 1491873185.452213, +0.084229, +1.658386, +0.025085, -48.110962, -51.162720, -65.567017
1491873185.452481, 1491873185.454779, +0.084229, +1.658386, +0.025085, -48.110962, -51.162720, -69.473267
1491873185.455046, 1491873185.457345, +0.084229, +1.658386, +0.025085, -48.675537, -45.974731, -67.504883
1491873185.457610, 1491873185.459914, +0.084229, +1.658386, +0.025085, -48.675537, -45.974731, -67.504883
1491873185.460335, 1491873185.462634, +0.204163, +1.648499, +0.053650, -47.805786, -41.076660, -70.053101
1491873185.462901, 1491873185.465200, +0.204163, +1.648499, +0.053650, -47.805786, -41.076660, -73.959351
1491873185.465467, 1491873185.467761, +0.204163, +1.648499, +0.053650, -46.768188, -35.568237, -73.913574
1491873185.468026, 1491873185.470361, +0.204163, +1.648499, +0.053650, -46.768188, -35.568237, -73.913574
1491873185.470634, 1491873185.473056, +0.160400, +1.694092, +0.047607, -46.997070, -32.226562, -77.880859
1491873185.473331, 1491873185.475755, +0.160400, +1.694092, +0.047607, -46.997070, -32.226562, -81.787109
1491873185.476029, 1491873185.478453, +0.160400, +1.694092, +0.047607, -46.890259, -29.983521, -80.215454
1491873185.478726, 1491873185.481168, +0.160400, +1.694092, +0.047607, -46.890259, -29.983521, -84.121704
1491873185.481442, 1491873185.483868, +0.175415, +1.750854, +0.024719, -46.966553, -30.197144, -82.672119
1491873185.484142, 1491873185.486571, +0.175415, +1.750854, +0.024719, -46.966553, -30.197144, -85.861206
1491873185.486847, 1491873185.489270, +0.175415, +1.750854, +0.024719, -46.936035, -35.171509, -85.861206
1491873185.489544, 1491873185.491980, +0.175415, +1.750854, -0.061707, -46.936035, -35.171509, -85.647583
1491873185.492253, 1491873185.494679, +0.302856, +1.830688, -0.061707, -45.471191, -39.840698, -85.647583
1491873185.494952, 1491873185.497376, +0.302856, +1.830688, -0.061707, -45.471191, -43.746948, -89.263916
1491873185.497649, 1491873185.500087, +0.302856, +1.830688, -0.061707, -45.959473, -43.426514, -89.263916
1491873185.500363, 1491873185.502786, +0.349731, +1.983765, -0.205444, -45.959473, -50.918579, -92.880249
1491873185.503058, 1491873185.505483, +0.366394, +1.983765, -0.205444, -46.142578, -50.918579, -92.880249
1491873185.505755, 1491873185.508181, +0.366394, +1.983765, -0.205444, -42.236328, -61.645508, -94.421387
1491873185.508454, 1491873185.510848, +0.366394, +1.983765, -0.205444, -42.800903, -61.645508, -94.421387
1491873185.511114, 1491873185.513412, +0.580627, +2.013062, -0.459229, -38.894653, -73.547363, -96.725464
1491873185.513678, 1491873185.515977, +0.580627, +2.013062, -0.459229, -37.399292, -73.547363, -96.725464
1491873185.516244, 1491873185.518544, +0.580627, +2.013062, -0.459229, -37.399292, -82.290649, -97.579956
1491873185.518811, 1491873185.521197, +0.580627, +2.013062, -0.459229, -30.899048, -82.290649, -97.579956
1491873185.521472, 1491873185.523901, +0.822327, +2.155701, -0.480652, -30.899048, -86.059570, -100.341797
1491873185.524176, 1491873185.526599, +0.822327, +2.155701, -0.480652, -28.335571, -86.059570, -100.341797
1491873185.526872, 1491873185.529293, +0.822327, +2.155701, -0.480652, -28.335571, -87.646484, -101.684570
1491873185.529567, 1491873185.532004, +0.822327, +2.155701, -0.480652, -28.533936, -87.646484, -101.684570
1491873185.532280, 1491873185.534703, +0.704956, +2.015442, -0.450439, -24.459839, -88.211060, -99.685669
1491873185.534977, 1491873185.537402, +0.704956, +2.015442, -0.450439, -24.459839, -88.211060, -99.685669
1491873185.537677, 1491873185.540107, +0.704956, +2.015442, -0.450439, -15.213013, -78.567505, -102.844238
1491873185.540381, 1491873185.542802, +0.704956, +1.874817, -0.327759, -15.213013, -78.567505, -102.844238
1491873185.543076, 1491873185.545500, +0.502991, +1.846985, -0.327759, -9.933472, -57.235718, -107.147217
1491873185.545773, 1491873185.548198, +0.502991, +1.846985, -0.327759, -9.933472, -57.235718, -107.147217
1491873185.548469, 1491873185.550908, +0.502991, +1.846985, -0.327759, -8.651733, -30.227661, -114.456177
1491873185.551182, 1491873185.553608, -0.283264, +2.159180, -0.399902, -8.651733, -30.227661, -114.456177
1491873185.553878, 1491873185.556306, -0.283264, +2.159180, -0.399902, -9.765625, -7.858276, -122.039795
1491873185.556573, 1491873185.558998, -0.283264, +2.159180, -0.399902, -9.765625, -7.858276, -122.039795
1491873185.559267, 1491873185.561618, -0.283264, +2.159180, -0.399902, -13.870239, +5.172729, -134.262085
1491873185.561981, 1491873185.564283, -0.984558, +2.519714, -0.508484, -13.870239, +5.172729, -134.262085
1491873185.564546, 1491873185.566844, -0.984558, +2.519714, -0.508484, -20.889282, +11.795044, -149.841309
1491873185.567111, 1491873185.569412, -0.984558, +2.519714, -0.508484, -20.889282, +11.795044, -149.841309
1491873185.569678, 1491873185.572021, -0.984558, +2.519714, -0.508484, -30.105591, +27.954102, -165.695190
1491873185.572287, 1491873185.574586, -1.319458, +2.534912, -0.234558, -30.105591, +27.954102, -165.695190
1491873185.574852, 1491873185.577151, -1.319458, +2.534912, -0.234558, -36.575317, +50.231934, -179.412842
1491873185.577415, 1491873185.579716, -1.319458, +2.534912, -0.234558, -36.575317, +50.231934, -179.412842
1491873185.579981, 1491873185.582401, -1.319458, +2.534912, -0.234558, -34.042358, +70.617676, -188.171387
1491873185.582676, 1491873185.585095, -1.402405, +2.112122, -0.431213, -34.042358, +70.617676, -188.171387
1491873185.585367, 1491873185.587785, -1.402405, +2.112122, -0.431213, -28.060913, +78.262329, -194.152832
1491873185.588058, 1491873185.590494, -1.402405, +2.112122, -0.431213, -28.060913, +78.262329, -194.152832
1491873185.590767, 1491873185.593193, -1.402405, +2.112122, -0.571838, -26.611328, +70.419312, -196.701050
1491873185.593467, 1491873185.595891, -1.281555, +2.012695, -0.592529, -26.611328, +70.419312, -196.701050
1491873185.596166, 1491873185.598590, -1.281555, +2.012695, -0.592529, -26.367188, +65.811157, -196.319580
1491873185.598864, 1491873185.601299, -1.281555, +2.012695, -0.592529, -26.367188, +65.811157, -196.319580
1491873185.601572, 1491873185.603998, -1.281555, +1.697571, -0.562317, -15.563965, +63.385010, -203.140259
1491873185.604270, 1491873185.606696, -2.064331, +1.697571, -0.562317, -15.563965, +63.385010, -203.140259
1491873185.606970, 1491873185.609392, -2.064331, +1.697571, -0.562317, -0.610352, +50.476074, -219.833374
1491873185.609663, 1491873185.612094, -2.064331, +1.697571, -0.562317, -0.610352, +50.476074, -219.833374
1491873185.612366, 1491873185.614789, -2.261902, +2.186279, -0.365662, -1.525879, +36.102295, -224.029541
1491873185.615059, 1491873185.617476, -2.261902, +2.186279, -0.365662, -1.525879, +36.102295, -224.029541
1491873185.617744, 1491873185.620177, -2.261902, +2.186279, -0.365662, -10.177612, +22.735596, -215.988159
1491873185.620444, 1491873185.622741, -2.261902, +2.186279, -0.365662, -10.177612, +22.735596, -215.988159
1491873185.623008, 1491873185.625303, -1.648865, +2.148010, -0.279602, -12.420654, +9.109497, -207.290649
1491873185.625567, 1491873185.627868, -1.648865, +2.148010, -0.279602, -12.420654, +9.109497, -207.290649
1491873185.628131, 1491873185.630520, -1.648865, +2.148010, -0.279602, -11.535645, -2.212524, -201.110840
1491873185.630791, 1491873185.633207, -1.648865, +2.148010, -0.279602, -11.535645, -2.212524, -201.110840
1491873185.633478, 1491873185.635904, -1.207397, +1.725586, -0.164795, -13.870239, -8.468628, -195.129395
1491873185.636174, 1491873185.638595, -1.207397, +1.725586, -0.164795, -13.870239, -8.468628, -195.129395
1491873185.638864, 1491873185.641302, -1.207397, +1.725586, -0.164795, -17.761230, -11.383057, -185.241699
1491873185.641577, 1491873185.644001, -1.207397, +1.725586, -0.121582, -17.761230, -11.383057, -185.241699
1491873185.644275, 1491873185.646699, -0.825989, +1.528198, -0.121582, -19.424438, -13.320923, -173.126221
1491873185.646973, 1491873185.649399, -0.825989, +1.528198, -0.121582, -19.424438, -13.320923, -161.407471
1491873185.649672, 1491873185.652107, -0.825989, +1.528198, -0.121582, -18.463135, -16.220093, -162.414551
1491873185.652381, 1491873185.654801, -0.825989, +1.203552, -0.197937, -18.463135, -16.220093, -152.374268
1491873185.655077, 1491873185.657495, -0.615417, +1.203552, -0.197937, -16.510010, -21.362305, -152.374268
1491873185.657769, 1491873185.660200, -0.615417, +1.203552, -0.197937, -16.510010, -21.362305, -141.464233
1491873185.660466, 1491873185.662768, -0.615417, +1.203552, -0.197937, -14.892578, -25.100708, -141.464233
1491873185.663034, 1491873185.665335, -0.492737, +0.999573, -0.206543, -14.892578, -25.100708, -131.179810
1491873185.665708, 1491873185.668006, -0.492737, +0.999573, -0.206543, -14.907837, -28.610229, -131.179810
1491873185.668273, 1491873185.670612, -0.492737, +0.999573, -0.206543, -14.907837, -28.610229, -121.276855
1491873185.670886, 1491873185.673311, -0.492737, +0.999573, -0.206543, -17.425537, -34.881592, -121.276855
1491873185.673585, 1491873185.676011, -0.385803, +0.769043, -0.161865, -17.425537, -34.881592, -111.404419
1491873185.676288, 1491873185.678708, -0.385803, +0.769043, -0.161865, -19.699097, -40.679932, -111.404419
1491873185.678982, 1491873185.681407, -0.385803, +0.769043, -0.161865, -19.699097, -44.586182, -100.982666
1491873185.681682, 1491873185.684102, -0.385803, +0.769043, -0.161865, -21.484375, -45.684814, -100.982666
1491873185.684377, 1491873185.686802, -0.158752, +0.441650, -0.178528, -21.484375, -49.591064, -89.706421
1491873185.687078, 1491873185.689499, -0.158752, +0.441650, -0.178528, -21.179199, -49.804688, -89.706421
1491873185.689774, 1491873185.692215, -0.158752, +0.441650, -0.178528, -21.179199, -53.375244, -77.316284
1491873185.692487, 1491873185.694918, -0.158752, +0.441650, -0.123962, -22.399902, -53.375244, -77.316284
1491873185.695192, 1491873185.697617, +0.156189, +0.177246, -0.123962, -26.306152, -54.595947, -64.987183
1491873185.697891, 1491873185.700330, +0.156189, +0.177246, -0.123962, -24.581909, -54.595947, -64.987183
1491873185.700604, 1491873185.703033, +0.156189, +0.177246, -0.123962, -26.641846, -50.827026, -53.359985
1491873185.703306, 1491873185.705731, +0.390564, -0.129639, -0.091187, -26.641846, -50.827026, -53.359985
1491873185.706005, 1491873185.708434, +0.407043, -0.129639, -0.091187, -27.816772, -43.579102, -41.992188
1491873185.708709, 1491873185.711095, +0.407043, -0.129639, -0.091187, -27.816772, -43.579102, -41.992188
1491873185.711361, 1491873185.713663, +0.407043, -0.129639, -0.091187, -29.510498, -37.628174, -30.242920
1491873185.713931, 1491873185.716235, +0.509949, -0.368408, -0.134216, -29.510498, -37.628174, -30.242920
1491873185.716502, 1491873185.718802, +0.509949, -0.368408, -0.134216, -30.364990, -32.669067, -18.417358
1491873185.719067, 1491873185.721403, +0.509949, -0.368408, -0.134216, -30.364990, -32.669067, -18.417358
1491873185.721668, 1491873185.723971, +0.509949, -0.368408, -0.134216, -29.769897, -28.366089, -5.844116
1491873185.724234, 1491873185.726531, +0.541443, -0.451172, -0.169922, -29.769897, -28.366089, -5.844116
1491873185.726793, 1491873185.729094, +0.541443, -0.451172, -0.169922, -29.769897, -26.565552, +5.752563
1491873185.729357, 1491873185.731750, +0.541443, -0.451172, -0.169922, -27.893066, -26.565552, +5.752563
1491873185.732022, 1491873185.734443, +0.541443, -0.451172, -0.169922, -23.986816, -26.321411, +17.837524
1491873185.734715, 1491873185.737142, +0.600037, -0.379395, -0.157471, -24.429321, -26.321411, +17.837524
1491873185.737415, 1491873185.739844, +0.600037, -0.379395, -0.157471, -19.927979, -24.780273, +30.364990
1491873185.740126, 1491873185.742551, +0.600037, -0.379395, -0.157471, -19.927979, -24.780273, +30.364990
1491873185.742824, 1491873185.745253, +0.600037, -0.379395, -0.110596, -15.060425, -18.890381, +42.663574
1491873185.745527, 1491873185.747949, +0.700195, -0.377014, -0.095764, -15.060425, -18.890381, +42.663574
1491873185.748224, 1491873185.750690, +0.700195, -0.377014, -0.095764, -9.078979, -10.101318, +56.686401
1491873185.750964, 1491873185.753387, +0.700195, -0.377014, -0.095764, -9.078979, -10.101318, +56.686401
1491873185.753659, 1491873185.756084, +0.700195, -0.377197, +0.008789, -4.318237, -3.051758, +72.433472
1491873185.756354, 1491873185.758775, +0.674011, -0.377197, +0.008789, -4.318237, -3.051758, +72.433472
1491873185.759044, 1491873185.761442, +0.674011, -0.377197, +0.008789, -1.464844, +2.151489, +85.510254
1491873185.761706, 1491873185.764004, +0.674011, -0.377197, +0.008789, -1.464844, +2.151489, +85.510254
1491873185.764267, 1491873185.766569, +0.566162, -0.291687, +0.114990, +0.244141, +6.164551, +98.297119
1491873185.766931, 1491873185.769230, +0.566162, -0.291687, +0.114990, +0.244141, +6.164551, +98.297119
1491873185.769493, 1491873185.771930, +0.566162, -0.291687, +0.114990, +0.839233, +8.880615, +110.717773
1491873185.772200, 1491873185.774624, +0.566162, -0.291687, +0.114990, +0.839233, +8.880615, +110.717773
1491873185.774892, 1491873185.777317, +0.645447, -0.231079, +0.156738, +3.860474, +14.404297, +122.085571
1491873185.777588, 1491873185.780011, +0.645447, -0.231079, +0.156738, +3.860474, +14.404297, +122.085571
1491873185.780335, 1491873185.782757, +0.645447, -0.231079, +0.156738, +8.499146, +23.559570, +131.668091
1491873185.783031, 1491873185.785459, +0.645447, -0.231079, +0.156738, +8.499146, +23.559570, +131.668091
1491873185.785731, 1491873185.788163, +0.780212, -0.230896, +0.152527, +12.771606, +35.659790, +139.694214
1491873185.788436, 1491873185.790904, +0.780212, -0.230896, +0.152527, +12.771606, +35.659790, +139.694214
1491873185.791177, 1491873185.793599, +0.780212, -0.230896, +0.152527, +16.815186, +51.086426, +146.530151
1491873185.793873, 1491873185.796295, +0.780212, -0.230896, +0.156555, +16.815186, +51.086426, +146.530151
1491873185.796569, 1491873185.798994, +0.709900, -0.172119, +0.156555, +19.989014, +66.711426, +152.801514
1491873185.799268, 1491873185.801701, +0.709900, -0.172119, +0.156555, +19.989014, +66.711426, +152.801514
1491873185.801975, 1491873185.804399, +0.709900, -0.172119, +0.156555, +22.933960, +81.497192, +158.905029
1491873185.804673, 1491873185.807095, +0.522400, -0.166809, +0.131653, +22.933960, +81.497192, +158.905029
1491873185.807370, 1491873185.809799, +0.541992, -0.166809, +0.131653, +25.390625, +93.841553, +166.015625
1491873185.810093, 1491873185.812424, +0.541992, -0.166809, +0.131653, +25.390625, +93.841553, +173.828125
1491873185.812693, 1491873185.814998, +0.541992, -0.166809, +0.131653, +27.740479, +106.063843, +173.141479
1491873185.815264, 1491873185.817567, +0.395508, -0.064270, +0.077454, +27.740479, +106.063843, +173.141479
1491873185.817834, 1491873185.820299, +0.395508, -0.064270, +0.077454, +28.579712, +117.080688, +178.985596
1491873185.820573, 1491873185.822964, +0.395508, -0.064270, +0.077454, +28.579712, +117.080688, +182.891846
1491873185.823236, 1491873185.825623, +0.395508, -0.064270, +0.077454, +25.695801, +120.468140, +182.296753
1491873185.825894, 1491873185.828276, +0.113892, +0.230896, +0.056030, +25.695801, +120.468140, +182.296753
1491873185.828550, 1491873185.831018, +0.113892, +0.230896, +0.056030, +22.537231, +117.675781, +182.189941
1491873185.831293, 1491873185.833684, +0.113892, +0.230896, +0.056030, +22.537231, +117.675781, +182.220459
1491873185.833957, 1491873185.836348, +0.113892, +0.230896, +0.056030, +21.057129, +114.898682, +182.220459
1491873185.836620, 1491873185.839003, +0.081848, +0.126343, -0.061523, +21.057129, +114.898682, +183.212280
1491873185.839276, 1491873185.841736, +0.081848, +0.126343, -0.061523, +21.942139, +114.501953, +183.212280
1491873185.842011, 1491873185.844435, +0.081848, +0.126343, -0.061523, +21.942139, +110.595703, +184.921265
1491873185.844711, 1491873185.847134, +0.081848, +0.220093, -0.110596, +21.774292, +111.267090, +184.921265
1491873185.847410, 1491873185.849832, -0.139343, +0.209656, -0.110596, +21.774292, +103.454590, +187.347412
1491873185.850117, 1491873185.852418, -0.139343, +0.209656, -0.110596, +20.263672, +105.377197, +187.347412
1491873185.852684, 1491873185.854985, -0.139343, +0.209656, -0.110596, +20.263672, +97.564697, +189.178467
1491873185.855252, 1491873185.857552, -0.139343, +0.270996, -0.082031, +18.249512, +97.320557, +189.178467
1491873185.857819, 1491873185.860138, -0.351929, +0.270996, -0.082031, +18.249512, +97.320557, +189.224243
1491873185.860415, 1491873185.862839, -0.351929, +0.270996, -0.082031, +16.967773, +88.424683, +189.224243
1491873185.863114, 1491873185.865537, -0.351929, +0.270996, -0.082031, +16.967773, +76.705933, +188.232422
1491873185.865812, 1491873185.868231, -0.547119, +0.366211, -0.081665, +16.738892, +75.973511, +188.232422
1491873185.868506, 1491873185.870938, -0.547119, +0.366211, -0.081665, +16.738892, +62.393188, +186.309814
1491873185.871327, 1491873185.873755, -0.547119, +0.366211, -0.081665, +17.272949, +62.393188, +186.309814
1491873185.874030, 1491873185.876453, -0.547119, +0.366211, -0.081665, +17.272949, +50.003052, +183.319092
1491873185.876728, 1491873185.879146, -0.764832, +0.505005, -0.037720, +15.914917, +50.003052, +183.319092
1491873185.879421, 1491873185.881895, -0.764832, +0.505005, -0.037720, +14.938354, +37.994385, +179.107666
1491873185.882172, 1491873185.884594, -0.764832, +0.505005, -0.037720, +14.938354, +37.994385, +179.107666
1491873185.884867, 1491873185.887287, -0.764832, +0.505005, +0.056030, +13.412476, +25.390625, +173.721313
1491873185.887563, 1491873185.889985, -1.014587, +0.534851, +0.058411, +13.412476, +25.390625, +173.721313
1491873185.890311, 1491873185.892732, -1.014587, +0.534851, +0.058411, +11.749268, +13.061523, +168.395996
1491873185.893006, 1491873185.895427, -1.014587, +0.534851, +0.058411, +11.749268, +13.061523, +168.395996
1491873185.895702, 1491873185.898123, -1.014587, +0.587769, +0.207458, +9.246826, +2.059937, +163.513184
1491873185.898391, 1491873185.900784, -1.291992, +0.587769, +0.207458, +9.246826, +2.059937, +163.513184
1491873185.901046, 1491873185.903348, -1.291992, +0.587769, +0.207458, +6.347656, -6.317139, +158.889771
1491873185.903610, 1491873185.905910, -1.291992, +0.587769, +0.207458, +6.347656, -6.317139, +158.889771
1491873185.906171, 1491873185.908474, -1.385742, +0.697449, +0.281433, +3.982544, -9.063721, +154.708862
1491873185.908735, 1491873185.911131, -1.380066, +0.697449, +0.281433, +3.982544, -9.063721, +154.708862
1491873185.911400, 1491873185.913816, -1.380066, +0.697449, +0.281433, +2.716064, -7.553101, +149.703979
1491873185.914084, 1491873185.916506, -1.380066, +0.697449, +0.281433, +2.716064, -7.553101, +149.703979
1491873185.916774, 1491873185.919193, -1.288147, +0.801453, +0.319885, +2.136230, -1.281738, +142.395020
1491873185.919461, 1491873185.921895, -1.288147, +0.801453, +0.319885, +2.136230, -1.281738, +142.395020
1491873185.922165, 1491873185.924587, -1.288147, +0.801453, +0.319885, +1.312256, +10.101318, +131.881714
1491873185.924858, 1491873185.927279, -1.288147, +0.801453, +0.319885, +1.312256, +10.101318, +131.881714
1491873185.927550, 1491873185.929971, -1.315063, +0.908020, +0.351746, +0.289917, +23.040771, +119.308472
1491873185.930289, 1491873185.932710, -1.315063, +0.908020, +0.351746, +0.289917, +23.040771, +119.308472
1491873185.932984, 1491873185.935410, -1.315063, +0.908020, +0.351746, -0.213623, +35.415649, +105.545044
1491873185.935683, 1491873185.938107, -1.315063, +0.908020, +0.304871, -0.213623, +35.415649, +105.545044
1491873185.938379, 1491873185.940799, -1.407898, +0.878723, +0.298096, -0.061035, +46.752930, +92.300415
1491873185.941072, 1491873185.943495, -1.407898, +0.878723, +0.298096, -0.061035, +46.752930, +92.300415
1491873185.943767, 1491873185.946189, -1.407898, +0.878723, +0.298096, +0.732422, +59.204102, +79.269409
1491873185.946462, 1491873185.948886, -1.407898, +0.854187, +0.134949, +0.732422, +59.204102, +79.269409
1491873185.949158, 1491873185.951524, -1.447083, +0.854187, +0.134949, +2.304077, +71.334839, +67.047119
1491873185.951787, 1491873185.954088, -1.447083, +0.854187, +0.134949, +2.304077, +71.334839, +67.047119
1491873185.954351, 1491873185.956648, -1.447083, +0.854187, +0.134949, +3.341675, +77.972412, +55.435181
1491873185.956912, 1491873185.959212, -1.587708, +0.831482, -0.079285, +3.341675, +77.972412, +55.435181
1491873185.959474, 1491873185.961823, -1.579102, +0.831482, -0.079285, +3.295898, +78.765869, +44.799805
1491873185.962088, 1491873185.964384, -1.579102, +0.831482, -0.079285, +3.295898, +78.765869, +44.799805
1491873185.964647, 1491873185.966944, -1.579102, +0.831482, -0.079285, +4.196167, +75.820923, +33.966064
1491873185.967207, 1491873185.969509, -1.719177, +0.791382, -0.250305, +4.196167, +75.820923, +33.966064
1491873185.969772, 1491873185.972218, -1.719177, +0.791382, -0.250305, +5.523682, +70.434570, +22.979736
1491873185.972490, 1491873185.974916, -1.719177, +0.791382, -0.250305, +5.523682, +70.434570, +22.979736
1491873185.975293, 1491873185.977714, -1.719177, +0.791382, -0.250305, +6.561279, +63.308716, +12.954712
1491873185.977985, 1491873185.980416, -1.776855, +0.803833, -0.348083, +6.561279, +63.308716, +12.954712
1491873185.980687, 1491873185.983113, -1.776855, +0.803833, -0.348083, +7.553101, +54.687500, +3.524780
1491873185.983381, 1491873185.985807, -1.776855, +0.803833, -0.348083, +7.553101, +54.687500, +3.524780
1491873185.986075, 1491873185.988502, -1.776855, +0.803833, -0.348083, +7.232666, +43.624878, -4.684448
1491873185.988771, 1491873185.991205, -1.800293, +0.862793, -0.290588, +7.232666, +43.624878, -12.496948
1491873185.991475, 1491873185.993897, -1.800293, +0.862793, -0.290588, +5.386353, +31.173706, -12.054443
1491873185.994166, 1491873185.996588, -1.800293, +0.862793, -0.290588, +5.386353, +31.173706, -15.960693
1491873185.996859, 1491873185.999280, -1.800293, +0.815918, -0.187866, +4.119873, +17.364502, -17.776489
1491873185.999551, 1491873186.001987, -1.760010, +0.814453, -0.187866, +4.119873, +17.364502, -21.636963
1491873186.002261, 1491873186.004685, -1.760010, +0.814453, -0.187866, +3.234863, +2.853394, -21.636963
1491873186.004953, 1491873186.007379, -1.760010, +0.814453, -0.187866, +3.234863, +2.853394, -24.246216
1491873186.007647, 1491873186.010084, -1.525635, +0.696350, -0.140808, +3.158569, -9.826660, -24.246216
1491873186.010346, 1491873186.012642, -1.501282, +0.696350, -0.140808, +3.158569, -9.826660, -26.443481
1491873186.012903, 1491873186.015206, -1.501282, +0.696350, -0.140808, +3.677368, -18.096924, -26.443481
1491873186.015470, 1491873186.017766, -1.501282, +0.696350, -0.140808, +3.677368, -18.096924, -28.289795
1491873186.018030, 1491873186.020358, -1.138916, +0.595459, -0.128906, +4.547119, -19.790649, -28.289795
1491873186.020630, 1491873186.023058, -1.138916, +0.595459, -0.128906, +4.547119, -19.790649, -28.396606
1491873186.023330, 1491873186.025751, -1.138916, +0.595459, -0.128906, +10.864258, -10.162354, -28.396606
1491873186.026024, 1491873186.028452, -1.138916, +0.595459, -0.128906, +10.864258, -10.162354, -31.982422
1491873186.028725, 1491873186.031161, -1.521790, +0.721069, -0.570007, +28.656006, +25.482178, -31.982422
1491873186.031434, 1491873186.033859, -1.521790, +0.721069, -0.570007, +28.656006, +41.107178, -29.464722
1491873186.034132, 1491873186.036556, -1.521790, +0.721069, -0.570007, +34.179688, +39.230347, -29.464722
1491873186.036829, 1491873186.039257, -1.521790, +0.721069, -0.570007, +34.179688, +30.548096, -25.161743
1491873186.039532, 1491873186.041969, -1.700500, +0.874878, -0.501343, +24.459839, +30.548096, -25.161743
1491873186.042242, 1491873186.044667, -1.700500, +0.874878, -0.501343, +8.834839, -19.622803, -18.890381
1491873186.044938, 1491873186.047358, -1.700500, +0.874878, -0.501343, +8.300781, -19.622803, -18.890381
1491873186.047628, 1491873186.050106, -1.700500, +1.437378, -0.224670, +0.488281, -87.036133, -1.113892
1491873186.050375, 1491873186.052798, -0.894470, +1.411926, -0.224670, +2.273560, -87.036133, -1.113892
1491873186.053067, 1491873186.055495, -0.894470, +1.411926, -0.224670, +5.249023, -115.051270, +11.734009
1491873186.055766, 1491873186.058191, -0.894470, +1.411926, -0.224670, +5.249023, -115.051270, +11.734009
1491873186.058462, 1491873186.060855, +0.727661, +1.595398, -0.191711, +9.094238, -105.178833, +14.968872
1491873186.061120, 1491873186.063423, +0.727661, +1.595398, -0.191711, +9.094238, -105.178833, +14.968872
1491873186.063686, 1491873186.065989, +0.727661, +1.595398, -0.191711, +11.169434, -75.729370, +8.010864
1491873186.066253, 1491873186.068551, +0.727661, +1.595398, -0.191711, +11.169434, -75.729370, +8.010864
1491873186.068813, 1491873186.071200, +0.442566, +1.497070, -0.254333, +11.901855, -45.196533, -0.457764
1491873186.071470, 1491873186.073902, +0.442566, +1.497070, -0.254333, +11.901855, -45.196533, -0.457764
1491873186.074174, 1491873186.076597, +0.442566, +1.497070, -0.254333, +9.017944, -32.073975, -3.036499
1491873186.076866, 1491873186.079297, +0.442566, +1.497070, -0.254333, +9.017944, -32.073975, -3.036499
1491873186.079670, 1491873186.082109, -0.197571, +1.671387, -0.236755, +4.638672, -26.596069, -4.547119
1491873186.082377, 1491873186.084798, -0.197571, +1.671387, -0.236755, +4.638672, -26.596069, -4.547119
1491873186.085064, 1491873186.087490, -0.197571, +1.671387, -0.236755, +1.449585, -24.154663, -6.210327
1491873186.087757, 1491873186.090193, -0.197571, +1.671387, -0.002380, +1.449585, -24.154663, -6.210327
1491873186.090455, 1491873186.092757, -0.373535, +1.473816, -0.032410, -0.946045, -24.841309, -7.278442
1491873186.093019, 1491873186.095314, -0.373535, +1.473816, -0.032410, -0.946045, -24.841309, -7.278442
1491873186.095576, 1491873186.097875, -0.373535, +1.473816, -0.032410, -3.417969, -25.833130, -7.110596
1491873186.098135, 1491873186.100511, -0.373535, +1.473816, +0.173401, -3.417969, -25.833130, -7.110596
1491873186.100779, 1491873186.103199, -0.398254, +1.349854, +0.173401, -6.866455, -26.550293, -7.400513
1491873186.103466, 1491873186.105886, -0.398254, +1.349854, +0.173401, -6.866455, -26.550293, -7.400513
1491873186.106155, 1491873186.108581, -0.398254, +1.349854, +0.173401, -10.864258, -27.725220, -8.911133
1491873186.108854, 1491873186.111269, -0.398254, +1.264343, +0.301025, -10.864258, -27.725220, -8.911133
1491873186.111534, 1491873186.113835, -0.388184, +1.264343, +0.301025, -13.519287, -25.146484, -9.841919
1491873186.114098, 1491873186.116399, -0.388184, +1.264343, +0.301025, -13.519287, -25.146484, -9.841919
1491873186.116663, 1491873186.118964, -0.388184, +1.264343, +0.301025, -13.732910, -18.997192, -8.926392
1491873186.119227, 1491873186.121615, -0.388184, +0.967529, +0.138428, -13.732910, -18.997192, -8.926392
1491873186.121886, 1491873186.124311, -0.383423, +0.967529, +0.138428, -14.114380, -12.115479, -6.820679
1491873186.124582, 1491873186.127011, -0.383423, +0.967529, +0.138428, -14.114380, -12.115479, -6.820679
1491873186.127282, 1491873186.129708, -0.383423, +0.967529, +0.138428, -13.610840, -7.629395, -4.425049
1491873186.129978, 1491873186.132411, -0.510681, +0.881287, -0.019043, -13.610840, -7.629395, -4.425049
1491873186.132681, 1491873186.135106, -0.510681, +0.881287, -0.019043, -12.481689, -4.074097, -0.717163
1491873186.135373, 1491873186.137796, -0.510681, +0.881287, -0.019043, -12.481689, -4.074097, -0.717163
1491873186.138065, 1491873186.140497, -0.510681, +0.881287, -0.019043, -9.979248, -0.900269, +4.623413
1491873186.140763, 1491873186.143190, -0.542358, +0.857849, -0.189331, -9.979248, -0.900269, +4.623413
1491873186.143456, 1491873186.145878, -0.542358, +0.857849, -0.189331, -7.049561, +0.946045, +9.338379
1491873186.146144, 1491873186.148568, -0.542358, +0.857849, -0.189331, -7.049561, +0.946045, +9.338379
1491873186.148833, 1491873186.151300, -0.542358, +0.857849, -0.291687, -6.072998, +0.854492, +12.863159
1491873186.151569, 1491873186.153988, -0.486328, +0.955811, -0.291687, -6.072998, +0.854492, +12.863159
1491873186.154255, 1491873186.156680, -0.486328, +0.955811, -0.291687, -5.767822, +0.076294, +16.510010
1491873186.156950, 1491873186.159375, -0.486328, +0.955811, -0.291687, -5.767822, +0.076294, +16.510010
1491873186.159646, 1491873186.162005, -0.392578, +1.030151, -0.309082, -4.135132, +0.152588, +19.851685
1491873186.162266, 1491873186.164560, -0.416748, +1.030151, -0.309082, -4.135132, +0.152588, +19.851685
1491873186.164821, 1491873186.167122, -0.416748, +1.030151, -0.309082, -3.005981, +0.411987, +22.476196
1491873186.167383, 1491873186.169683, -0.416748, +1.030151, -0.309082, -3.005981, +0.411987, +22.476196
1491873186.169942, 1491873186.172375, -0.416748, +1.204285, -0.165161, -3.417969, -0.381470, +24.093628
1491873186.172645, 1491873186.175065, -0.402100, +1.204285, -0.165161, -3.417969, -0.381470, +24.093628
1491873186.175333, 1491873186.177752, -0.402100, +1.204285, -0.165161, -4.058838, +0.396729, +25.100708
1491873186.178021, 1491873186.180490, -0.402100, +1.204285, -0.165161, -4.058838, +0.396729, +25.100708
1491873186.180759, 1491873186.183181, -0.379761, +1.296936, +0.013000, -3.967285, +2.990723, +25.360107
1491873186.183555, 1491873186.185985, -0.379761, +1.296936, +0.013000, -3.967285, +2.990723, +25.360107
1491873186.186253, 1491873186.188675, -0.379761, +1.296936, +0.013000, -3.326416, +5.950928, +25.039673
1491873186.188944, 1491873186.191369, -0.379761, +1.296936, +0.013000, -3.326416, +5.950928, +25.573730
1491873186.191638, 1491873186.194060, -0.359253, +1.199707, +0.013367, -2.227783, +8.651733, +25.573730
1491873186.194328, 1491873186.196752, -0.359253, +1.199707, +0.013367, -2.227783, +8.651733, +26.107788
1491873186.197021, 1491873186.199447, -0.359253, +1.199707, +0.013367, -0.793457, +11.215210, +26.107788
1491873186.199720, 1491873186.202151, -0.359253, +1.199707, -0.123230, -0.793457, +15.121460, +27.297974
1491873186.202425, 1491873186.204853, -0.401733, +1.081238, -0.123230, -0.259399, +13.931274, +27.297974
1491873186.205124, 1491873186.207548, -0.401733, +1.081238, -0.123230, -0.259399, +13.931274, +28.762817
1491873186.207819, 1491873186.210281, -0.401733, +1.081238, -0.123230, +0.015259, +15.228271, +28.762817
1491873186.210547, 1491873186.212853, -0.401733, +1.017700, -0.163696, +0.015259, +16.311646, +29.937744
1491873186.213118, 1491873186.215418, -0.392395, +1.017700, -0.163696, +0.106812, +16.311646, +29.937744
1491873186.215683, 1491873186.217985, -0.392395, +1.017700, -0.163696, +0.106812, +16.311646, +30.502319
1491873186.218250, 1491873186.220554, -0.392395, +1.017700, -0.163696, +0.640869, +16.113281, +30.502319
1491873186.220817, 1491873186.223116, -0.337280, +0.991516, -0.145203, +0.640869, +16.113281, +31.265259
1491873186.223381, 1491873186.225677, -0.337280, +0.991516, -0.145203, +0.930786, +16.799927, +31.265259
1491873186.225942, 1491873186.228238, -0.337280, +0.991516, -0.145203, +0.930786, +16.799927, +31.555176
1491873186.228500, 1491873186.230887, -0.337280, +0.991516, -0.145203, +1.586914, +18.127441, +31.555176
1491873186.231160, 1491873186.234156, -0.329224, +0.995178, -0.094849, +1.586914, +19.577026, +31.600952
1491873186.234427, 1491873186.236720, -0.329224, +0.995178, -0.094849, +2.716064, +19.577026, +31.600952
1491873186.236985, 1491873186.239275, -0.329224, +0.995178, -0.094849, +6.622314, +19.805908, +32.104492
1491873186.239538, 1491873186.241923, -0.329224, +0.995178, -0.094849, +4.745483, +19.805908, +32.104492
1491873186.242187, 1491873186.244482, -0.320251, +1.033997, -0.064453, +4.745483, +19.531250, +32.073975
1491873186.244746, 1491873186.247040, -0.320251, +1.033997, -0.064453, +6.439209, +19.531250, +32.073975
1491873186.247303, 1491873186.249603, -0.320251, +1.033997, -0.064453, +6.439209, +19.195557, +31.951904
1491873186.249867, 1491873186.252232, -0.320251, +1.033997, -0.064453, +6.866455, +19.195557, +31.951904
1491873186.252493, 1491873186.254798, -0.281433, +1.035461, -0.117004, +6.866455, +19.195557, +31.967163
1491873186.255062, 1491873186.257355, -0.281433, +1.035461, -0.117004, +8.026123, +19.027710, +31.967163
1491873186.257620, 1491873186.259919, -0.281433, +1.035461, -0.117004, +8.026123, +19.027710, +31.600952
1491873186.260182, 1491873186.262485, -0.281433, +1.035461, -0.117004, +8.789062, +19.180298, +31.600952
1491873186.262752, 1491873186.265050, -0.331238, +1.015503, -0.179810, +8.789062, +19.180298, +31.600952
1491873186.265315, 1491873186.267607, -0.331238, +1.015503, -0.179810, +9.231567, +19.012451, +31.600952
1491873186.267871, 1491873186.270171, -0.331238, +1.015503, -0.179810, +9.231567, +19.012451, +31.860352
1491873186.270437, 1491873186.272740, -0.331238, +1.015503, -0.179810, +10.223389, +17.364502, +31.860352
1491873186.273006, 1491873186.275312, -0.334167, +1.029602, -0.153259, +10.223389, +17.364502, +31.860352
1491873186.275576, 1491873186.277880, -0.334167, +1.029602, -0.153259, +11.917114, +14.953613, +31.631470
1491873186.278146, 1491873186.280510, -0.334167, +1.029602, -0.153259, +11.917114, +14.953613, +31.631470
1491873186.280783, 1491873186.283212, -0.334167, +1.029602, -0.167542, +13.442993, +13.015747, +31.433105
1491873186.283485, 1491873186.285910, -0.292969, +1.023010, -0.167542, +13.442993, +13.015747, +31.433105
1491873186.286304, 1491873186.288728, -0.292969, +1.023010, -0.167542, +13.977051, +12.786865, +31.585693
1491873186.289000, 1491873186.291430, -0.292969, +1.023010, -0.167542, +13.977051, +12.786865, +31.280518
1491873186.291704, 1491873186.294128, -0.292969, +0.977417, -0.203430, +14.038086, +13.702393, +31.280518
1491873186.294401, 1491873186.296832, -0.312927, +0.977417, -0.203430, +14.038086, +13.702393, +31.494141
1491873186.297105, 1491873186.299521, -0.312927, +0.977417, -0.203430, +14.373779, +14.389038, +31.494141
1491873186.299795, 1491873186.302218, -0.312927, +0.977417, -0.203430, +14.373779, +14.389038, +31.875610
1491873186.302493, 1491873186.304921, -0.313110, +0.987305, -0.179626, +14.785767, +14.175415, +31.875610
1491873186.305196, 1491873186.307620, -0.313110, +0.987305, -0.179626, +14.785767, +13.916016, +32.409668
1491873186.307892, 1491873186.310330, -0.313110, +0.987305, -0.179626, +14.190674, +13.916016, +32.409668
1491873186.310604, 1491873186.313038, -0.313110, +0.987305, -0.179626, +14.190674, +13.580322, +32.775879
1491873186.313313, 1491873186.315724, -0.283081, +0.999390, -0.177063, +13.076782, +13.580322, +32.775879
1491873186.315999, 1491873186.318417, -0.283081, +0.999390, -0.177063, +12.329102, +13.900757, +32.989502
1491873186.318692, 1491873186.321099, -0.283081, +0.999390, -0.177063, +12.329102, +13.900757, +32.989502
1491873186.321365, 1491873186.323755, -0.283081, +0.999390, -0.201050, +10.940552, +15.472412, +32.546997
1491873186.324023, 1491873186.326330, -0.243713, +1.010010, -0.201050, +10.940552, +15.472412, +32.546997
1491873186.326597, 1491873186.328894, -0.243713, +1.010010, -0.201050, +9.597778, +16.235352, +31.860352
1491873186.329158, 1491873186.331466, -0.243713, +1.010010, -0.201050, +9.597778, +16.235352, +31.860352
1491873186.331729, 1491873186.334139, -0.243713, +1.056885, -0.207825, +7.354736, +16.006470, +31.082153
1491873186.334405, 1491873186.336705, -0.220642, +1.039307, -0.207825, +7.354736, +16.006470, +31.082153
1491873186.336967, 1491873186.339267, -0.220642, +1.039307, -0.207825, +7.354736, +15.335083, +30.349731
1491873186.339530, 1491873186.342153, -0.220642, +1.039307, -0.207825, +5.783081, +15.335083, +30.349731
1491873186.342422, 1491873186.344865, -0.220642, +1.070435, -0.210571, +4.592896, +14.770508, +29.067993
1491873186.345136, 1491873186.347565, -0.218079, +1.070435, -0.210571, +4.592896, +14.770508, +29.067993
1491873186.347835, 1491873186.350341, -0.218079, +1.070435, -0.210571, +2.899170, +14.114380, +27.816772
1491873186.350613, 1491873186.353037, -0.218079, +1.070435, -0.210571, +2.899170, +14.114380, +27.816772
1491873186.353307, 1491873186.355730, -0.212585, +1.074829, -0.140625, +2.227783, +14.068604, +26.733398
1491873186.356000, 1491873186.358423, -0.212585, +1.074829, -0.140625, +2.227783, +14.068604, +26.733398
1491873186.358695, 1491873186.361131, -0.212585, +1.074829, -0.140625, +1.831055, +12.985229, +25.711060
1491873186.361401, 1491873186.363820, -0.212585, +1.074829, -0.140625, +1.831055, +12.985229, +25.711060
1491873186.364091, 1491873186.366520, -0.244263, +1.064026, -0.110596, +1.754761, +12.161255, +25.054932
1491873186.366791, 1491873186.369214, -0.244263, +1.064026, -0.110596, +1.754761, +12.161255, +25.054932
1491873186.369487, 1491873186.371920, -0.244263, +1.064026, -0.110596, +1.586914, +10.406494, +24.429321
1491873186.372192, 1491873186.374617, -0.244263, +1.064026, -0.091187, +1.586914, +10.406494, +24.429321
1491873186.374889, 1491873186.377311, -0.242249, +1.061096, -0.091187, +1.586914, +8.117676, +23.864746
1491873186.377579, 1491873186.379995, -0.242249, +1.061096, -0.091187, +1.586914, +8.117676, +23.864746
1491873186.380319, 1491873186.382622, -0.242249, +1.061096, -0.091187, +1.785278, +5.905151, +23.056030
1491873186.382882, 1491873186.385183, -0.148499, +1.032349, -0.100708, +1.785278, +5.905151, +23.056030
1491873186.385444, 1491873186.387745, -0.186584, +1.032349, -0.100708, +1.815796, +3.585815, +22.033691
1491873186.388007, 1491873186.390334, -0.186584, +1.032349, -0.100708, +1.815796, +3.585815, +22.033691
1491873186.390715, 1491873186.393134, -0.186584, +1.032349, -0.100708, +1.480103, +2.197266, +20.965576
1491873186.393402, 1491873186.395822, -0.161133, +1.021362, -0.105469, +1.480103, +2.197266, +20.965576
1491873186.396089, 1491873186.398512, -0.161133, +1.021362, -0.105469, +1.434326, +1.800537, +19.363403
1491873186.398780, 1491873186.401204, -0.161133, +1.021362, -0.105469, +1.434326, +1.800537, +19.363403
1491873186.401472, 1491873186.403894, -0.161133, +1.021362, -0.105469, +1.632690, +1.480103, +17.883301
1491873186.404163, 1491873186.406584, -0.173584, +1.050110, -0.107117, +1.632690, +1.480103, +17.883301
1491873186.406854, 1491873186.409275, -0.173584, +1.050110, -0.107117, +1.617432, +0.595093, +16.845703
1491873186.409544, 1491873186.411981, -0.173584, +1.050110, -0.107117, +1.617432, +0.595093, +16.845703
1491873186.412251, 1491873186.414672, -0.173584, +1.050110, -0.107117, +1.296997, -0.656128, +15.441895
1491873186.414941, 1491873186.417364, -0.230530, +1.076111, -0.129456, +1.296997, -0.656128, +15.441895
1491873186.417631, 1491873186.420112, -0.230530, +1.076111, -0.129456, +1.037598, -2.441406, +14.236450
1491873186.420383, 1491873186.422805, -0.230530, +1.076111, -0.129456, +1.037598, -2.441406, +12.786865
1491873186.423072, 1491873186.425496, -0.230530, +1.122986, -0.117188, +1.190186, -5.310059, +12.786865
1491873186.425766, 1491873186.428186, -0.175598, +1.101929, -0.117188, +1.190186, -5.310059, +10.437012
1491873186.428454, 1491873186.430849, -0.175598, +1.101929, -0.117188, +1.449585, -8.316040, +10.437012
1491873186.431109, 1491873186.433414, -0.175598, +1.101929, -0.117188, +1.449585, -8.316040, +7.461548
1491873186.433671, 1491873186.435971, -0.128723, +1.092590, -0.168823, +1.846313, -9.719849, +7.461548
1491873186.436228, 1491873186.438521, -0.134216, +1.092590, -0.168823, +1.846313, -9.719849, +4.791260
1491873186.438780, 1491873186.441174, -0.134216, +1.092590, -0.168823, +1.937866, -10.101318, +4.791260
1491873186.441443, 1491873186.443866, -0.134216, +1.092590, -0.168823, +1.937866, -10.101318, +2.426147
1491873186.444133, 1491873186.446558, -0.142639, +1.084351, -0.204895, +1.586914, -10.726929, +2.426147
1491873186.446825, 1491873186.449244, -0.142639, +1.084351, -0.204895, +1.586914, -10.726929, -0.244141
1491873186.449512, 1491873186.451942, -0.142639, +1.084351, -0.204895, +1.113892, -11.962891, -0.244141
1491873186.452211, 1491873186.454642, -0.142639, +1.084351, -0.204895, +1.113892, -11.962891, -1.770020
1491873186.454911, 1491873186.457331, -0.186218, +1.066589, -0.202515, +0.869751, -13.397217, -1.770020
1491873186.457599, 1491873186.460014, -0.186218, +1.066589, -0.202515, +0.869751, -17.303467, -2.883911
1491873186.460336, 1491873186.462764, -0.186218, +1.066589, -0.202515, +1.052856, -15.792847, -2.883911
1491873186.463030, 1491873186.465449, -0.186218, +1.066589, -0.202515, +1.052856, -18.081665, -4.272461
1491873186.465717, 1491873186.468144, -0.191345, +1.045349, -0.180542, +0.869751, -18.081665, -4.272461
1491873186.468413, 1491873186.470884, -0.191345, +1.045349, -0.180542, +0.869751, -20.202637, -5.828857
1491873186.471153, 1491873186.473572, -0.191345, +1.045349, -0.180542, +0.701904, -20.202637, -5.828857
1491873186.473839, 1491873186.476269, -0.191345, +1.045349, -0.168091, +0.030518, -20.965576, -6.256104
1491873186.476538, 1491873186.478959, -0.175415, +1.037292, -0.168091, +0.030518, -20.965576, -6.256104
1491873186.479228, 1491873186.481611, -0.175415, +1.037292, -0.168091, -0.427246, -21.484375, -7.766724
1491873186.481873, 1491873186.484178, -0.175415, +1.037292, -0.168091, -0.427246, -21.484375, -7.766724
1491873186.484440, 1491873186.486739, -0.175415, +1.078857, -0.155640, -1.663208, -23.559570, -9.429932
1491873186.487000, 1491873186.489298, -0.159302, +1.078857, -0.155640, -1.663208, -23.559570, -9.429932
1491873186.489559, 1491873186.491963, -0.159302, +1.078857, -0.155640, -1.663208, -25.741577, -11.322021
1491873186.492236, 1491873186.494655, -0.159302, +1.078857, -0.155640, -1.663208, -25.741577, -11.322021
1491873186.495034, 1491873186.497468, -0.143921, +1.139648, -0.168091, -2.075195, -26.763916, -13.916016
1491873186.497739, 1491873186.500169, -0.143921, +1.139648, -0.168091, -2.075195, -26.763916, -13.916016
1491873186.500441, 1491873186.502860, -0.143921, +1.139648, -0.168091, -2.716064, -27.206421, -16.784668
1491873186.503130, 1491873186.505556, -0.143921, +1.139648, -0.168091, -2.716064, -27.206421, -16.784668
1491873186.505827, 1491873186.508247, -0.128906, +1.191650, -0.157471, -3.982544, -27.420044, -18.981934
1491873186.508518, 1491873186.510954, -0.128906, +1.191650, -0.157471, -3.982544, -27.420044, -18.981934
1491873186.511222, 1491873186.513646, -0.128906, +1.191650, -0.157471, -5.493164, -27.664185, -20.874023
1491873186.513916, 1491873186.516333, -0.128906, +1.191650, -0.157471, -5.493164, -27.664185, -20.874023
1491873186.516603, 1491873186.519030, -0.025635, +1.264893, -0.152527, -7.476807, -25.497437, -23.590088
1491873186.519302, 1491873186.521731, -0.025635, +1.264893, -0.152527, -7.476807, -25.497437, -23.590088
1491873186.522003, 1491873186.524419, -0.025635, +1.264893, -0.152527, -9.857178, -23.071289, -27.572632
1491873186.524690, 1491873186.527117, -0.025635, +1.248779, -0.203430, -9.857178, -23.071289, -27.572632
1491873186.527390, 1491873186.529811, -0.100159, +1.248779, -0.203430, -11.428833, -22.064209, -29.876709
1491873186.530094, 1491873186.532399, -0.100159, +1.248779, -0.203430, -11.428833, -22.064209, -29.876709
1491873186.532666, 1491873186.534962, -0.100159, +1.248779, -0.203430, -13.061523, -23.117065, -32.379150
1491873186.535228, 1491873186.537527, -0.097595, +1.255371, -0.183289, -13.061523, -23.117065, -32.379150
1491873186.537792, 1491873186.540149, -0.097595, +1.255371, -0.183289, -15.518188, -24.414062, -35.140991
1491873186.540426, 1491873186.542846, -0.097595, +1.255371, -0.183289, -15.518188, -24.414062, -35.140991
1491873186.543120, 1491873186.545540, -0.097595, +1.255371, -0.183289, -17.608643, -25.085449, -37.445068
1491873186.545815, 1491873186.548241, -0.099609, +1.302612, -0.181824, -17.608643, -25.085449, -37.445068
1491873186.548513, 1491873186.550946, -0.099609, +1.302612, -0.181824, -19.958496, -25.085449, -39.474487
1491873186.551218, 1491873186.553645, -0.099609, +1.302612, -0.181824, -19.958496, -25.085449, -39.474487
1491873186.553918, 1491873186.556337, -0.099609, +1.302612, -0.181824, -21.835327, -24.978638, -41.702271
1491873186.556610, 1491873186.559032, -0.074890, +1.337036, -0.204529, -21.835327, -24.978638, -41.702271
1491873186.559306, 1491873186.561743, -0.074890, +1.337036, -0.204529, -22.750854, -24.948120, -43.609619
1491873186.562016, 1491873186.564443, -0.074890, +1.337036, -0.204529, -22.750854, -24.948120, -43.609619
1491873186.564717, 1491873186.567135, -0.074890, +1.337036, -0.236572, -23.269653, -24.551392, -44.448853
1491873186.567408, 1491873186.569835, -0.079651, +1.299866, -0.236572, -23.269653, -24.551392, -44.448853
1491873186.570116, 1491873186.572545, -0.079651, +1.299866, -0.236572, -24.154663, -24.002075, -44.906616
1491873186.572819, 1491873186.575250, -0.079651, +1.299866, -0.236572, -24.154663, -24.002075, -44.906616
1491873186.575523, 1491873186.577951, -0.079651, +1.306824, -0.238770, -24.963379, -23.574829, -45.028687
1491873186.578224, 1491873186.580692, -0.171021, +1.306824, -0.238770, -24.963379, -23.574829, -43.945312
1491873186.580958, 1491873186.583265, -0.171021, +1.306824, -0.238770, -25.390625, -23.727417, -43.945312
1491873186.583531, 1491873186.585834, -0.171021, +1.306824, -0.238770, -25.390625, -23.727417, -43.228149
1491873186.586101, 1491873186.588395, -0.175781, +1.343628, -0.173035, -25.405884, -25.222778, -43.228149
1491873186.588661, 1491873186.590967, -0.175781, +1.343628, -0.173035, -25.405884, -25.222778, -39.321899
1491873186.591236, 1491873186.593530, -0.175781, +1.343628, -0.173035, -24.291992, -26.565552, -41.946411
1491873186.593796, 1491873186.596094, -0.175781, +1.343628, -0.173035, -24.291992, -26.565552, -41.946411
1491873186.596359, 1491873186.598651, -0.155090, +1.351501, -0.078186, -23.132324, -27.801514, -41.336060
1491873186.599031, 1491873186.601455, -0.155090, +1.351501, -0.078186, -23.132324, -27.801514, -41.336060
1491873186.601730, 1491873186.604158, -0.155090, +1.351501, -0.078186, -23.712158, -29.647827, -41.702271
1491873186.604432, 1491873186.606850, -0.155090, +1.351501, -0.078186, -23.712158, -29.647827, -41.625977
1491873186.607123, 1491873186.609543, -0.097778, +1.397827, +0.031860, -24.154663, -32.470703, -41.625977
1491873186.609816, 1491873186.612248, -0.097778, +1.397827, +0.031860, -24.154663, -32.470703, -42.663574
1491873186.612523, 1491873186.614946, -0.097778, +1.397827, +0.031860, -24.642944, -35.369873, -42.663574
1491873186.615218, 1491873186.617638, -0.097778, +1.397827, +0.031860, -24.642944, -35.369873, -43.594360
1491873186.617911, 1491873186.620341, +0.060059, +1.494141, +0.080017, -25.299072, -38.772583, -43.594360
1491873186.620614, 1491873186.623036, +0.060059, +1.494141, +0.080017, -25.299072, -42.678833, -45.181274
1491873186.623311, 1491873186.625740, +0.060059, +1.494141, +0.080017, -26.123047, -40.679932, -45.181274
1491873186.626013, 1491873186.628429, +0.060059, +1.681641, +0.034607, -26.123047, -44.296265, -45.593262
1491873186.628702, 1491873186.631134, +0.147583, +1.679443, +0.034607, -27.359009, -44.296265, -45.593262
1491873186.631408, 1491873186.633833, +0.147583, +1.679443, +0.034607, -27.359009, -47.973633, -46.707153
1491873186.634109, 1491873186.636535, +0.147583, +1.679443, +0.034607, -29.098511, -47.973633, -46.707153
1491873186.636809, 1491873186.639235, +0.245544, +1.666077, -0.038452, -31.295776, -51.696777, -49.468994
1491873186.639510, 1491873186.641851, +0.245544, +1.666077, -0.038452, -31.295776, -51.696777, -49.468994
1491873186.642117, 1491873186.644415, +0.245544, +1.666077, -0.038452, -31.295776, -56.777954, -52.474976
1491873186.644680, 1491873186.646984, +0.245544, +1.666077, -0.038452, -32.226562, -56.777954, -52.474976
1491873186.647249, 1491873186.649543, +0.360535, +1.628723, -0.126526, -32.226562, -62.515259, -53.985596
1491873186.649808, 1491873186.652222, +0.360535, +1.628723, -0.126526, -32.501221, -62.515259, -53.985596
1491873186.652495, 1491873186.654918, +0.360535, +1.628723, -0.126526, -32.501221, -66.711426, -56.762695
1491873186.655192, 1491873186.657616, +0.360535, +1.628723, -0.126526, -31.860352, -66.711426, -56.762695
1491873186.657890, 1491873186.660333, +0.490173, +1.746826, -0.192078, -31.173706, -71.945190, -60.729980
1491873186.660608, 1491873186.663027, +0.490173, +1.746826, -0.192078, -31.173706, -71.945190, -60.729980
1491873186.663300, 1491873186.665724, +0.490173, +1.746826, -0.192078, -30.853271, -76.934814, -62.774658
1491873186.665999, 1491873186.668424, +0.490173, +1.746826, -0.332703, -30.853271, -76.934814, -62.774658
1491873186.668697, 1491873186.671133, +0.526245, +1.827026, -0.341309, -30.426025, -79.559326, -66.421509
1491873186.671407, 1491873186.673828, +0.526245, +1.827026, -0.341309, -30.426025, -79.559326, -66.421509
1491873186.674103, 1491873186.676524, +0.526245, +1.827026, -0.341309, -28.381348, -79.925537, -69.778442
1491873186.676796, 1491873186.679218, +0.526245, +1.728333, -0.399719, -28.381348, -79.925537, -69.778442
1491873186.679491, 1491873186.681927, +0.523865, +1.728333, -0.399719, -26.000977, -74.371338, -75.942993
1491873186.682201, 1491873186.684625, +0.523865, +1.728333, -0.399719, -26.000977, -74.371338, -75.942993
1491873186.684899, 1491873186.687322, +0.523865, +1.728333, -0.399719, -23.818970, -61.203003, -87.051392
1491873186.687598, 1491873186.690025, +0.191528, +1.799927, -0.424988, -23.818970, -61.203003, -87.051392
1491873186.690341, 1491873186.692642, +0.191528, +1.799927, -0.424988, -21.636963, -43.869019, -98.480225
1491873186.692907, 1491873186.695208, +0.191528, +1.799927, -0.424988, -21.636963, -43.869019, -98.480225
1491873186.695474, 1491873186.697778, +0.191528, +1.799927, -0.424988, -20.843506, -22.903442, -108.825684
1491873186.698044, 1491873186.700373, -0.103271, +1.939453, -0.538696, -20.843506, -22.903442, -108.825684
1491873186.700649, 1491873186.703076, -0.103271, +1.939453, -0.538696, -21.163940, -4.119873, -119.247437
1491873186.703453, 1491873186.705877, -0.103271, +1.939453, -0.538696, -21.163940, -4.119873, -119.247437
1491873186.706148, 1491873186.708574, -0.103271, +1.939453, -0.538696, -19.943237, +13.015747, -130.004883
1491873186.708850, 1491873186.711319, -0.356140, +2.243774, -0.593079, -19.943237, +13.015747, -130.004883
1491873186.711594, 1491873186.714017, -0.356140, +2.243774, -0.593079, -20.202637, +32.043457, -145.446777
1491873186.714290, 1491873186.716711, -0.356140, +2.243774, -0.593079, -20.202637, +32.043457, -145.446777
1491873186.716985, 1491873186.719411, -0.356140, +2.243774, -0.414551, -24.429321, +53.482056, -162.460327
1491873186.719682, 1491873186.722012, -1.084900, +2.485107, -0.414551, -24.429321, +53.482056, -162.460327
1491873186.722279, 1491873186.724582, -1.084900, +2.485107, -0.414551, -31.326294, +66.543579, -175.491333
1491873186.724849, 1491873186.727147, -1.084900, +2.485107, -0.414551, -31.326294, +66.543579, -175.491333
1491873186.727413, 1491873186.729708, -1.084900, +2.578857, -0.219910, -36.346436, +70.983887, -184.463501
1491873186.729975, 1491873186.732419, -1.683289, +2.614014, -0.219910, -36.346436, +70.983887, -184.463501
1491873186.732692, 1491873186.735119, -1.683289, +2.614014, -0.219910, -36.911011, +70.068359, -193.191528
1491873186.735393, 1491873186.737819, -1.683289, +2.614014, -0.219910, -36.911011, +70.068359, -193.191528
1491873186.738092, 1491873186.740511, -1.595947, +2.217407, -0.345703, -35.079956, +64.788818, -198.867798
1491873186.740776, 1491873186.743079, -1.595947, +2.217407, -0.345703, -35.079956, +64.788818, -198.867798
1491873186.743344, 1491873186.745649, -1.595947, +2.217407, -0.345703, -34.133911, +44.250488, -202.423096
1491873186.745918, 1491873186.748217, -1.595947, +2.217407, -0.345703, -34.133911, +44.250488, -202.423096
1491873186.748484, 1491873186.750836, -1.425476, +1.891479, -0.352844, -33.706665, +28.167725, -201.461792
1491873186.751108, 1491873186.753535, -1.425476, +1.891479, -0.352844, -33.706665, +28.167725, -201.461792
1491873186.753807, 1491873186.756233, -1.425476, +1.891479, -0.352844, -21.163940, +18.814087, -212.310791
1491873186.756507, 1491873186.758932, -1.425476, +1.891479, -0.352844, -21.163940, +18.814087, -212.310791
1491873186.759204, 1491873186.761639, -2.277283, +1.988159, -0.401550, -8.590698, +4.989624, -228.240967
1491873186.761907, 1491873186.764326, -2.277283, +1.988159, -0.401550, -8.590698, +4.989624, -228.240967
1491873186.764596, 1491873186.767028, -2.277283, +1.988159, -0.401550, -11.688232, -14.083862, -225.921631
1491873186.767300, 1491873186.769719, -2.277283, +1.988159, -0.401550, -11.688232, -14.083862, -218.109131
1491873186.769992, 1491873186.772420, -1.667542, +2.243042, -0.282532, -21.469116, -33.584595, -214.950562
1491873186.772692, 1491873186.775115, -1.667542, +2.243042, -0.282532, -21.469116, -33.584595, -203.231812
1491873186.775388, 1491873186.777807, -1.667542, +2.243042, -0.282532, -25.741577, -50.216675, -206.893921
1491873186.778081, 1491873186.780515, -1.667542, +1.961792, -0.271545, -25.741577, -50.216675, -201.217651
1491873186.780788, 1491873186.783213, -1.233582, +1.934692, -0.271545, -25.772095, -61.614990, -201.217651
1491873186.783485, 1491873186.785906, -1.233582, +1.934692, -0.271545, -25.772095, -61.614990, -195.068359
1491873186.786178, 1491873186.788600, -1.233582, +1.934692, -0.271545, -24.871826, -63.842773, -195.068359
1491873186.788872, 1491873186.791246, -0.800720, +1.666443, -0.207092, -24.871826, -56.030273, -187.194824
1491873186.791512, 1491873186.793810, -0.800720, +1.666443, -0.207092, -21.743774, -54.733276, -187.194824
1491873186.794075, 1491873186.796376, -0.800720, +1.666443, -0.207092, -21.743774, -54.733276, -177.764893
1491873186.796641, 1491873186.798944, -0.800720, +1.666443, -0.207092, -21.026611, -41.961670, -177.764893
1491873186.799210, 1491873186.801643, -0.582092, +1.482971, -0.073059, -21.026611, -41.961670, -169.265747
1491873186.801919, 1491873186.804348, -0.582092, +1.482971, -0.073059, -22.567749, -36.712646, -169.265747
1491873186.804729, 1491873186.807155, -0.582092, +1.482971, -0.073059, -22.567749, -36.712646, -159.927368
1491873186.807429, 1491873186.809852, -0.582092, +1.482971, -0.073059, -24.307251, -36.148071, -159.927368
1491873186.810135, 1491873186.812556, -0.520203, +1.206299, -0.087708, -24.307251, -34.805298, -151.016235
1491873186.812832, 1491873186.815257, -0.520203, +1.206299, -0.087708, -22.888184, -34.805298, -151.016235
1491873186.815531, 1491873186.817963, -0.520203, +1.206299, -0.087708, -22.888184, -34.591675, -142.456055
1491873186.818238, 1491873186.820741, -0.520203, +1.206299, -0.040833, -22.140503, -34.591675, -142.456055
1491873186.821016, 1491873186.823443, -0.407410, +0.895569, -0.030945, -20.996094, -36.514282, -133.850098
1491873186.823718, 1491873186.826151, -0.407410, +0.895569, -0.030945, -20.996094, -36.514282, -133.850098
1491873186.826426, 1491873186.828851, -0.407410, +0.895569, -0.030945, -20.431519, -37.887573, -125.366211
1491873186.829124, 1491873186.831568, -0.407410, +0.677856, +0.002563, -20.431519, -37.887573, -125.366211
1491873186.831843, 1491873186.834271, -0.290588, +0.677856, +0.002563, -21.026611, -37.719727, -114.929199
1491873186.834546, 1491873186.836971, -0.290588, +0.677856, +0.002563, -21.026611, -37.719727, -114.929199
1491873186.837245, 1491873186.839670, -0.290588, +0.677856, +0.002563, -21.575928, -36.361694, -104.019165
1491873186.839946, 1491873186.842269, -0.172119, +0.549866, -0.016113, -21.575928, -36.361694, -104.019165
1491873186.842536, 1491873186.844833, -0.172119, +0.549866, -0.016113, -23.666382, -35.537720, -92.681885
1491873186.845098, 1491873186.847402, -0.172119, +0.549866, -0.016113, -23.666382, -35.537720, -92.681885
1491873186.847668, 1491873186.849970, -0.172119, +0.549866, -0.016113, -24.749756, -32.882690, -81.008911
1491873186.850296, 1491873186.852598, +0.001465, +0.386536, -0.020325, -24.749756, -32.882690, -81.008911
1491873186.852867, 1491873186.855161, +0.001465, +0.386536, -0.020325, -25.558472, -27.725220, -70.449829
1491873186.855429, 1491873186.857726, +0.001465, +0.386536, -0.020325, -25.558472, -27.725220, -70.449829
1491873186.857993, 1491873186.860336, +0.001465, +0.386536, -0.020325, -25.619507, -20.111084, -60.211182
1491873186.860612, 1491873186.863034, +0.212769, +0.101990, -0.002197, -25.619507, -20.111084, -60.211182
1491873186.863310, 1491873186.865737, +0.212769, +0.101990, -0.002197, -26.519775, -10.955811, -47.317505
1491873186.866013, 1491873186.868442, +0.212769, +0.101990, -0.002197, -26.519775, -10.955811, -47.317505
1491873186.868717, 1491873186.871151, +0.212769, +0.101990, -0.002197, -28.503418, -1.861572, -33.111572
1491873186.871424, 1491873186.873850, +0.475708, -0.143555, +0.030029, -28.503418, -1.861572, -33.111572
1491873186.874121, 1491873186.876544, +0.475708, -0.143555, +0.030029, -29.937744, +6.317139, -17.593384
1491873186.876815, 1491873186.879234, +0.475708, -0.143555, +0.030029, -29.937744, +6.317139, -17.593384
1491873186.879506, 1491873186.881948, +0.475708, -0.377930, -0.008240, -29.510498, +12.954712, +1.678467
1491873186.882222, 1491873186.884642, +0.734802, -0.405762, -0.008240, -29.510498, +12.954712, +1.678467
1491873186.884916, 1491873186.887340, +0.734802, -0.405762, -0.008240, -26.260376, +21.881104, +21.392822
1491873186.887615, 1491873186.890081, +0.734802, -0.405762, -0.008240, -26.260376, +21.881104, +21.392822
1491873186.890357, 1491873186.892779, +0.981995, -0.468384, -0.125610, -20.278931, +29.647827, +38.574219
1491873186.893052, 1491873186.895477, +0.981995, -0.468384, -0.125610, -20.278931, +29.647827, +38.574219
1491873186.895752, 1491873186.898172, +0.981995, -0.468384, -0.125610, -12.695312, +35.308838, +52.047729
1491873186.898445, 1491873186.900874, +0.981995, -0.468384, -0.125610, -12.695312, +35.308838, +52.047729
1491873186.901140, 1491873186.903445, +0.841003, -0.143921, -0.145020, -8.880615, +39.291382, +60.455322
1491873186.903710, 1491873186.906009, +0.841003, -0.143921, -0.145020, -8.880615, +39.291382, +60.455322
1491873186.906374, 1491873186.908673, +0.841003, -0.143921, -0.145020, -8.102417, +41.244507, +69.183350
1491873186.908937, 1491873186.911347, +0.841003, -0.143921, -0.145020, -8.102417, +41.244507, +69.183350
1491873186.911619, 1491873186.914042, +0.566895, -0.086243, -0.049072, -8.987427, +38.864136, +78.796387
1491873186.914317, 1491873186.916743, +0.566895, -0.086243, -0.049072, -8.987427, +38.864136, +78.796387
1491873186.917015, 1491873186.919437, +0.566895, -0.086243, -0.049072, -8.361816, +34.027100, +90.164185
1491873186.919709, 1491873186.922149, +0.566895, -0.086243, -0.003845, -8.361816, +34.027100, +90.164185
1491873186.922421, 1491873186.924844, +0.484680, -0.314026, -0.003845, -5.416870, +30.990601, +102.920532
1491873186.925116, 1491873186.927542, +0.484680, -0.314026, -0.003845, -5.416870, +30.990601, +110.733032
1491873186.927815, 1491873186.930280, +0.484680, -0.314026, -0.003845, -0.991821, +31.875610, +112.808228
1491873186.930552, 1491873186.932979, +0.484680, -0.258362, -0.014282, -0.991821, +31.875610, +123.901367
1491873186.933251, 1491873186.935675, +0.593994, -0.258362, -0.014282, +2.563477, +35.263062, +123.901367
1491873186.935946, 1491873186.938371, +0.593994, -0.258362, -0.014282, +2.563477, +35.263062, +133.560181
1491873186.938643, 1491873186.941111, +0.593994, -0.258362, -0.014282, +4.867554, +39.199829, +133.560181
1491873186.941384, 1491873186.943808, +0.593628, -0.158752, +0.014832, +4.867554, +43.106079, +142.074585
1491873186.944080, 1491873186.946513, +0.593628, -0.158752, +0.014832, +6.881714, +43.914795, +142.074585
1491873186.946784, 1491873186.949206, +0.593628, -0.158752, +0.014832, +6.881714, +48.858643, +150.680542
1491873186.949476, 1491873186.951850, +0.593628, -0.158752, +0.014832, +9.979248, +48.858643, +150.680542
1491873186.952115, 1491873186.954417, +0.466370, -0.150146, +0.036804, +9.979248, +52.764893, +158.264160
1491873186.954681, 1491873186.956982, +0.466370, -0.150146, +0.036804, +12.695312, +52.932739, +158.264160
1491873186.957250, 1491873186.959547, +0.466370, -0.150146, +0.036804, +12.695312, +56.838989, +166.183472
1491873186.959815, 1491873186.962123, +0.466370, -0.150146, +0.036804, +15.625000, +56.640625, +166.183472
1491873186.962389, 1491873186.964686, +0.352478, -0.147766, +0.022705, +15.625000, +56.640625, +174.743652
1491873186.964951, 1491873186.967255, +0.352478, -0.147766, +0.022705, +18.966675, +59.753418, +174.743652
1491873186.967522, 1491873186.969820, +0.352478, -0.147766, +0.022705, +18.966675, +59.753418, +182.876587
1491873186.970107, 1491873186.972549, +0.352478, -0.147766, +0.022705, +21.881104, +63.781738, +182.876587
1491873186.972824, 1491873186.975250, +0.263123, -0.059692, -0.011169, +21.881104, +63.781738, +189.147949
1491873186.975524, 1491873186.977945, +0.263123, -0.059692, -0.011169, +23.345947, +67.398071, +189.147949
1491873186.978221, 1491873186.980690, +0.263123, -0.059692, -0.011169, +23.345947, +63.491821, +192.230225
1491873186.980964, 1491873186.983386, +0.263123, +0.221558, -0.047058, +22.003174, +64.376831, +192.230225
1491873186.983661, 1491873186.986085, +0.062256, +0.202332, -0.047058, +22.003174, +57.800293, +192.626953
1491873186.986359, 1491873186.988786, +0.062256, +0.202332, -0.047058, +20.370483, +57.800293, +192.626953
1491873186.989060, 1491873186.991493, +0.062256, +0.202332, -0.047058, +20.370483, +54.962158, +193.359375
1491873186.991768, 1491873186.994195, +0.054199, +0.095398, -0.116455, +22.247314, +54.962158, +193.359375
1491873186.994469, 1491873186.996894, +0.054199, +0.095398, -0.116455, +24.551392, +55.496216, +195.266724
1491873186.997168, 1491873186.999591, +0.054199, +0.095398, -0.116455, +24.551392, +55.496216, +195.266724
1491873186.999866, 1491873187.002190, +0.054199, +0.095398, -0.116455, +24.627686, +54.443359, +198.074341
1491873187.002456, 1491873187.004763, -0.177612, +0.167358, -0.128174, +24.627686, +54.443359, +198.074341
1491873187.005029, 1491873187.007328, -0.177612, +0.167358, -0.128174, +24.627686, +51.452637, +199.722290
1491873187.007595, 1491873187.009900, -0.177612, +0.167358, -0.128174, +23.971558, +51.452637, +199.722290
1491873187.010332, 1491873187.012713, -0.177612, +0.167358, -0.128174, +24.734497, +49.072266, +200.195312
1491873187.013006, 1491873187.015708, -0.333252, +0.176880, -0.035889, +24.734497, +49.072266, +200.195312
1491873187.015984, 1491873187.018766, -0.333252, +0.176880, -0.035889, +26.199341, +45.776367, +199.829102
1491873187.019039, 1491873187.021337, -0.333252, +0.176880, -0.035889, +26.199341, +45.776367, +199.829102
1491873187.021604, 1491873187.023942, -0.333252, +0.270630, +0.018127, +26.794434, +39.474487, +199.035645
1491873187.024208, 1491873187.026504, -0.703857, +0.276306, +0.018127, +26.794434, +39.474487, +199.035645
1491873187.026771, 1491873187.029067, -0.703857, +0.276306, +0.018127, +26.779175, +30.883789, +197.357178
1491873187.029333, 1491873187.031668, -0.703857, +0.276306, +0.018127, +26.779175, +30.883789, +197.357178
1491873187.031934, 1491873187.034235, -0.703857, +0.345886, +0.034241, +28.640747, +23.254395, +194.732666
1491873187.034504, 1491873187.036799, -0.862976, +0.345886, +0.034241, +28.640747, +23.254395, +194.732666
