timestamp_before, timestamp_after, accel_x, accel_y, accel_z, gyro_x, gyro_y, gyro_z
1491873005.257323, 1491873005.260190, -0.138977, +1.026855, -0.156921, -2.227783, -0.305176, +2.197266
1491873005.260537, 1491873005.263035, -0.138977, +1.026855, -0.156921, -2.227783, -0.305176, +2.197266
1491873005.263299, 1491873005.265594, -0.141357, +1.030151, -0.159119, -2.502441, +0.106812, +2.014160
1491873005.265853, 1491873005.268241, -0.141357, +1.030151, -0.159119, -2.502441, +0.106812, +2.014160
1491873005.268500, 1491873005.271023, -0.141357, +1.030151, -0.159119, -2.182007, +0.000000, +1.968384
1491873005.271283, 1491873005.273579, -0.141357, +1.030151, -0.159119, -2.182007, +0.000000, +1.968384
1491873005.273836, 1491873005.276129, -0.149414, +0.995361, -0.151611, -1.907349, -0.244141, +2.090454
1491873005.276388, 1491873005.278714, -0.149414, +0.995361, -0.151611, -1.907349, -0.244141, +2.090454
1491873005.278971, 1491873005.281306, -0.149414, +0.995361, -0.151611, -1.678467, -0.396729, +2.044678
1491873005.281564, 1491873005.283860, -0.149414, +0.995361, -0.151611, -1.678467, -0.396729, +2.044678
1491873005.284119, 1491873005.286413, -0.143921, +1.024109, -0.150879, -1.571655, -0.488281, +1.968384
1491873005.286670, 1491873005.288966, -0.143921, +1.024109, -0.150879, -1.571655, -0.488281, +1.968384
1491873005.289223, 1491873005.291544, -0.143921, +1.024109, -0.150879, -1.831055, -0.534058, +1.754761
1491873005.291800, 1491873005.294096, -0.143921, +1.024109, -0.150879, -1.831055, -0.534058, +1.754761
1491873005.294353, 1491873005.296650, -0.141541, +1.020996, -0.163879, -2.578735, -0.152588, +1.937866
1491873005.296906, 1491873005.299203, -0.141541, +1.020996, -0.163879, -2.578735, -0.152588, +1.937866
1491873005.299459, 1491873005.301837, -0.141541, +1.020996, -0.163879, -2.349854, +0.289917, +1.876831
1491873005.302093, 1491873005.304393, -0.141541, +1.020996, -0.163879, -2.349854, +0.289917, +1.876831
1491873005.304649, 1491873005.306942, -0.138428, +1.020996, -0.137512, -2.334595, +0.869751, +1.953125
1491873005.307199, 1491873005.309502, -0.138428, +1.020996, -0.137512, -2.334595, +0.869751, +1.953125
1491873005.309758, 1491873005.312838, -0.138428, +1.020996, -0.137512, -2.731323, +1.129150, +1.693726
1491873005.313111, 1491873005.316124, -0.138428, +1.020996, -0.124695, -2.731323, +1.129150, +1.693726
1491873005.316396, 1491873005.318817, -0.143921, +1.019348, -0.124695, -2.624512, +1.571655, +1.754761
1491873005.319081, 1491873005.321519, -0.143921, +1.019348, -0.124695, -2.624512, +1.571655, +1.754761
1491873005.321784, 1491873005.324206, -0.143921, +1.019348, -0.124695, -2.548218, +1.876831, +1.831055
1491873005.324469, 1491873005.326887, -0.137878, +1.018250, -0.121033, -2.548218, +1.876831, +1.831055
1491873005.327152, 1491873005.329568, -0.137878, +1.018250, -0.121033, -1.892090, +2.563477, +1.876831
1491873005.329833, 1491873005.332314, -0.137878, +1.018250, -0.121033, -1.892090, +2.563477, +1.876831
1491873005.332579, 1491873005.334996, -0.137878, +1.018250, -0.121033, -1.037598, +3.036499, +1.998901
1491873005.335259, 1491873005.337771, -0.142822, +1.024658, -0.140991, -1.037598, +3.036499, +1.586914
1491873005.338034, 1491873005.340499, -0.142822, +1.024658, -0.140991, -0.961304, +3.707886, +1.586914
1491873005.340765, 1491873005.343191, -0.142822, +1.024658, -0.140991, -0.961304, +3.707886, +1.525879
1491873005.343456, 1491873005.345875, -0.142822, +1.024658, -0.140991, -1.296997, +4.425049, +1.525879
1491873005.346138, 1491873005.348557, -0.154358, +1.028687, -0.160767, -1.296997, +4.425049, +1.190186
1491873005.348822, 1491873005.351229, -0.154358, +1.028687, -0.160767, -0.030518, +6.271362, +1.190186
1491873005.351487, 1491873005.353783, -0.154358, +1.028687, -0.160767, -0.030518, +10.177612, +1.892090
1491873005.354046, 1491873005.356338, -0.154358, +1.028687, -0.186584, +0.869751, +11.154175, +1.892090
1491873005.356598, 1491873005.358895, -0.166260, +1.006531, -0.186584, +0.869751, +11.154175, +2.380371
1491873005.359156, 1491873005.361540, -0.166260, +1.006531, -0.186584, +1.998901, +16.662598, +2.380371
1491873005.361960, 1491873005.364376, -0.166260, +1.006531, -0.186584, +1.998901, +16.662598, +2.777100
1491873005.364644, 1491873005.367062, -0.166260, +0.997559, -0.162964, +2.456665, +18.142700, +2.777100
1491873005.367333, 1491873005.369756, -0.135681, +0.997559, -0.162964, +2.456665, +17.822266, +3.021240
1491873005.370024, 1491873005.372357, -0.135681, +0.997559, -0.162964, +3.082275, +17.822266, +3.021240
1491873005.372616, 1491873005.374908, -0.135681, +0.997559, -0.162964, +3.082275, +17.822266, +3.021240
1491873005.375169, 1491873005.377469, -0.157654, +1.003418, -0.150879, +3.021240, +19.210815, +3.021240
1491873005.377729, 1491873005.380030, -0.157654, +1.003418, -0.150879, +3.021240, +27.023315, +3.768921
1491873005.380453, 1491873005.382754, -0.157654, +1.003418, -0.150879, +4.150391, +26.962280, +3.768921
1491873005.383013, 1491873005.385312, -0.157654, +1.003418, -0.150879, +4.150391, +38.681030, +5.081177
1491873005.385571, 1491873005.387869, -0.111694, +0.999390, -0.117920, +4.745483, +35.522461, +5.081177
1491873005.388130, 1491873005.390605, -0.111694, +0.999390, -0.117920, +4.745483, +35.522461, +5.187988
1491873005.390873, 1491873005.393298, -0.111694, +0.999390, -0.117920, +2.151489, +34.606934, +5.187988
1491873005.393569, 1491873005.395999, -0.111694, +0.999390, -0.117920, +2.151489, +30.700684, +3.799438
1491873005.396269, 1491873005.398690, -0.149780, +1.019165, -0.062439, +0.900269, +27.511597, +3.799438
1491873005.398960, 1491873005.401337, -0.149780, +1.019165, -0.062439, +0.900269, +22.720337, +2.075195
1491873005.401599, 1491873005.403899, -0.149780, +1.019165, -0.062439, -0.076294, +22.720337, +2.075195
1491873005.404159, 1491873005.406458, -0.149780, +1.019165, -0.062439, -0.076294, +18.814087, +1.403809
1491873005.406719, 1491873005.409011, -0.134399, +1.031250, -0.105652, -0.350952, +19.271851, +1.403809
1491873005.409273, 1491873005.411706, -0.134399, +1.031250, -0.105652, -0.350952, +19.271851, +0.640869
1491873005.411975, 1491873005.414399, -0.134399, +1.031250, -0.105652, -0.106812, +16.326904, +0.640869
1491873005.414672, 1491873005.417095, -0.134399, +1.031250, -0.164429, -0.106812, +15.487671, -0.915527
1491873005.417365, 1491873005.419783, -0.087524, +1.057983, -0.164429, -0.610352, +15.487671, -0.915527
1491873005.420092, 1491873005.422519, -0.087524, +1.057983, -0.164429, -0.610352, +14.236450, -2.990723
1491873005.422789, 1491873005.425209, -0.087524, +1.057983, -0.164429, -1.922607, +14.236450, -2.990723
1491873005.425475, 1491873005.427899, -0.087524, +1.063660, -0.190063, -1.922607, +12.512207, -4.730225
1491873005.428169, 1491873005.430694, -0.101624, +1.063660, -0.190063, -2.838135, +12.512207, -4.730225
1491873005.430955, 1491873005.433258, -0.101624, +1.063660, -0.190063, -3.784180, +10.955811, -6.484985
1491873005.433520, 1491873005.435813, -0.101624, +1.063660, -0.190063, -3.784180, +10.955811, -6.484985
1491873005.436074, 1491873005.438372, -0.092468, +1.069702, -0.205994, -7.690430, +8.972168, -8.056641
1491873005.438631, 1491873005.441214, -0.092468, +1.069702, -0.205994, -5.142212, +8.972168, -8.056641
1491873005.441474, 1491873005.443770, -0.092468, +1.069702, -0.205994, -6.591797, +6.683350, -9.445190
1491873005.444027, 1491873005.446433, -0.092468, +1.069702, -0.205994, -6.591797, +6.683350, -9.445190
1491873005.446691, 1491873005.448984, -0.103455, +1.075195, -0.223755, -8.499146, +4.180908, -11.276245
1491873005.450003, 1491873005.452316, -0.103455, +1.075195, -0.223755, -8.499146, +4.180908, -11.276245
1491873005.452581, 1491873005.454881, -0.103455, +1.075195, -0.223755, -10.162354, +1.983643, -12.863159
1491873005.455146, 1491873005.457442, -0.103455, +1.075195, -0.223755, -10.162354, +1.983643, -12.863159
1491873005.457706, 1491873005.460003, -0.115906, +1.072266, -0.230347, -11.886597, -0.778198, -13.916016
1491873005.460346, 1491873005.462770, -0.115906, +1.072266, -0.230347, -11.886597, -0.778198, -13.916016
1491873005.463043, 1491873005.465471, -0.115906, +1.072266, -0.230347, -14.694214, -3.463745, -15.853882
1491873005.465743, 1491873005.468168, -0.115906, +1.119141, -0.208740, -14.694214, -3.463745, -15.853882
1491873005.468557, 1491873005.470995, -0.140808, +1.083984, -0.208740, -17.440796, -6.469727, -17.272949
1491873005.471266, 1491873005.473689, -0.140808, +1.083984, -0.208740, -17.440796, -6.469727, -17.272949
1491873005.473961, 1491873005.476384, -0.140808, +1.083984, -0.208740, -20.111084, -9.994507, -18.646240
1491873005.476655, 1491873005.479079, -0.146484, +1.085266, -0.213684, -20.111084, -9.994507, -18.646240
1491873005.479351, 1491873005.481706, -0.146484, +1.085266, -0.213684, -23.040771, -13.809204, -19.973755
1491873005.481972, 1491873005.484270, -0.146484, +1.085266, -0.213684, -23.040771, -13.809204, -19.973755
1491873005.484536, 1491873005.486842, -0.146484, +1.085266, -0.213684, -25.497437, -17.059326, -21.194458
1491873005.487107, 1491873005.489400, -0.107483, +1.076111, -0.224670, -25.497437, -17.059326, -21.194458
1491873005.489667, 1491873005.492125, -0.107483, +1.076111, -0.224670, -28.396606, -18.951416, -23.010254
1491873005.492394, 1491873005.494703, -0.107483, +1.076111, -0.224670, -28.396606, -18.951416, -23.010254
1491873005.494970, 1491873005.497265, -0.107483, +1.076111, -0.224670, -30.639648, -20.751953, -24.856567
1491873005.497532, 1491873005.499827, -0.097046, +1.072998, -0.221558, -30.639648, -20.751953, -24.856567
1491873005.500206, 1491873005.502636, -0.097046, +1.072998, -0.221558, -33.065796, -23.452759, -27.130127
1491873005.502912, 1491873005.505337, -0.097046, +1.072998, -0.221558, -33.065796, -23.452759, -27.130127
1491873005.505610, 1491873005.508031, -0.097046, +1.072998, -0.221558, -35.064697, -25.985718, -29.220581
1491873005.508306, 1491873005.510741, -0.102173, +1.065125, -0.227783, -35.064697, -25.985718, -29.220581
1491873005.511016, 1491873005.513439, -0.102173, +1.065125, -0.227783, -36.880493, -29.037476, -31.356812
1491873005.513712, 1491873005.516140, -0.102173, +1.065125, -0.227783, -36.880493, -29.037476, -31.356812
1491873005.516415, 1491873005.518836, -0.102173, +1.065125, -0.206726, -38.589478, -31.967163, -32.989502
1491873005.519109, 1491873005.521545, -0.111511, +1.069885, -0.206726, -38.589478, -31.967163, -32.989502
1491873005.521820, 1491873005.524249, -0.111511, +1.069885, -0.206726, -39.718628, -34.439087, -34.942627
1491873005.524522, 1491873005.526948, -0.111511, +1.069885, -0.206726, -39.718628, -34.439087, -38.848877
1491873005.527222, 1491873005.529649, -0.123962, +1.064026, -0.148499, -39.855957, -36.697388, -36.651611
1491873005.529921, 1491873005.532239, -0.123962, +1.064026, -0.148499, -39.855957, -36.697388, -36.651611
1491873005.532507, 1491873005.534803, -0.123962, +1.064026, -0.148499, -40.603638, -39.047241, -38.772583
1491873005.535071, 1491873005.537373, -0.123962, +1.064026, -0.148499, -40.603638, -39.047241, -42.678833
1491873005.537638, 1491873005.539941, -0.138062, +1.051758, -0.118286, -40.954590, -40.802002, -40.832520
1491873005.540214, 1491873005.542634, -0.138062, +1.051758, -0.118286, -40.954590, -40.802002, -40.832520
1491873005.542909, 1491873005.545335, -0.138062, +1.051758, -0.118286, -41.030884, -42.037964, -42.358398
1491873005.545610, 1491873005.548035, -0.138062, +1.051758, -0.118286, -41.030884, -42.037964, -46.264648
1491873005.548310, 1491873005.550747, -0.147400, +1.050659, -0.123230, -40.298462, -42.434692, -43.533325
1491873005.551020, 1491873005.553435, -0.147400, +1.050659, -0.123230, -40.298462, -42.434692, -44.891357
1491873005.553710, 1491873005.556263, -0.147400, +1.050659, -0.123230, -39.627075, -42.648315, -44.891357
1491873005.556537, 1491873005.558964, -0.147400, +1.050659, -0.123230, -39.627075, -42.648315, -45.791626
1491873005.559237, 1491873005.561721, -0.157837, +1.065125, -0.117737, -38.818359, -42.434692, -45.791626
1491873005.561993, 1491873005.564413, -0.157837, +1.065125, -0.117737, -38.818359, -42.861938, -46.447754
1491873005.564685, 1491873005.567111, -0.157837, +1.065125, -0.117737, -38.070679, -42.861938, -46.447754
1491873005.567384, 1491873005.569803, -0.157837, +1.103577, -0.105652, -38.070679, -42.663574, -47.378540
1491873005.570194, 1491873005.572490, -0.141541, +1.103577, -0.105652, -37.200928, -42.663574, -47.378540
1491873005.572758, 1491873005.575052, -0.141541, +1.103577, -0.105652, -37.200928, -42.098999, -49.484253
1491873005.575318, 1491873005.577618, -0.141541, +1.103577, -0.105652, -36.514282, -42.098999, -49.484253
1491873005.577885, 1491873005.580187, -0.094666, +1.135803, -0.086243, -36.514282, -41.213989, -50.765991
1491873005.580454, 1491873005.582747, -0.124329, +1.135803, -0.086243, -36.056519, -41.213989, -50.765991
1491873005.583013, 1491873005.585307, -0.124329, +1.135803, -0.086243, -36.056519, -37.307739, -50.765991
1491873005.585575, 1491873005.587871, -0.124329, +1.135803, -0.086243, -35.568237, -37.597656, -50.765991
1491873005.588138, 1491873005.590505, -0.194824, +1.130493, -0.122314, -35.568237, -33.691406, -50.430298
1491873005.590775, 1491873005.593070, -0.194824, +1.130493, -0.122314, -33.599854, -31.951904, -50.430298
1491873005.593338, 1491873005.595632, -0.194824, +1.130493, -0.122314, -33.599854, -31.951904, -49.514771
1491873005.595898, 1491873005.598198, -0.194824, +1.130493, -0.122314, -32.760620, -29.861450, -49.514771
1491873005.598464, 1491873005.600847, -0.229797, +1.195129, -0.099976, -32.760620, -29.861450, -48.797607
1491873005.601114, 1491873005.603411, -0.229797, +1.195129, -0.099976, -31.738281, -29.205322, -48.797607
1491873005.603677, 1491873005.605973, -0.229797, +1.195129, -0.099976, -31.738281, -29.205322, -46.676636
1491873005.606239, 1491873005.608529, -0.229797, +1.195129, -0.099976, -29.632568, -27.786255, -46.676636
1491873005.608795, 1491873005.611259, -0.094299, +1.279175, -0.134399, -29.632568, -27.786255, -44.189453
1491873005.611532, 1491873005.613956, -0.094299, +1.279175, -0.134399, -28.732300, -25.497437, -44.189453
1491873005.614229, 1491873005.616651, -0.094299, +1.279175, -0.134399, -28.732300, -25.497437, -44.296265
1491873005.616926, 1491873005.619342, -0.094299, +1.279175, -0.134399, -29.129028, -17.761230, -44.296265
1491873005.619615, 1491873005.621937, -0.067932, +1.286133, -0.057495, -29.129028, -17.761230, -45.654297
1491873005.622204, 1491873005.624501, -0.067932, +1.286133, -0.057495, -28.305054, -7.141113, -45.654297
1491873005.624763, 1491873005.627058, -0.067932, +1.286133, -0.057495, -28.305054, -7.141113, -46.371460
1491873005.627321, 1491873005.629618, -0.067932, +1.286133, -0.057495, -26.138306, -0.503540, -46.371460
1491873005.629883, 1491873005.632332, -0.141357, +1.262329, -0.083679, -26.138306, -0.503540, -46.600342
1491873005.632605, 1491873005.635026, -0.141357, +1.262329, -0.083679, -24.627686, +1.052856, -46.600342
1491873005.635297, 1491873005.637718, -0.141357, +1.262329, -0.083679, -24.627686, +1.052856, -47.454834
1491873005.637990, 1491873005.640416, -0.141357, +1.262329, -0.067932, -25.100708, +2.395630, -47.454834
1491873005.640688, 1491873005.643109, -0.081482, +1.282104, -0.067932, -25.100708, +6.301880, -49.926758
1491873005.643381, 1491873005.645800, -0.081482, +1.282104, -0.067932, -25.939941, +4.348755, -49.926758
1491873005.646069, 1491873005.648490, -0.081482, +1.282104, -0.067932, -25.939941, +4.348755, -51.925659
1491873005.648763, 1491873005.651199, -0.081482, +1.208679, -0.115906, -26.184082, +6.515503, -51.925659
1491873005.651470, 1491873005.653884, -0.087341, +1.208679, -0.115906, -26.184082, +9.902954, -52.993774
1491873005.654158, 1491873005.656579, -0.087341, +1.208679, -0.115906, -25.680542, +9.902954, -52.993774
1491873005.656849, 1491873005.659276, -0.087341, +1.208679, -0.115906, -25.680542, +12.466431, -52.688599
1491873005.659549, 1491873005.661987, -0.094116, +1.213257, -0.147217, -24.566650, +12.466431, -52.688599
1491873005.662260, 1491873005.664682, -0.094116, +1.213257, -0.147217, -23.925781, +12.741089, -53.405762
1491873005.664955, 1491873005.667375, -0.094116, +1.213257, -0.147217, -23.925781, +12.741089, -53.405762
1491873005.667647, 1491873005.670081, -0.094116, +1.213257, -0.147217, -23.651123, +12.176514, -54.794312
1491873005.670348, 1491873005.672643, -0.149780, +1.163452, -0.156189, -23.651123, +12.176514, -54.794312
1491873005.673016, 1491873005.675311, -0.149780, +1.163452, -0.156189, -23.757935, +9.613037, -57.571411
1491873005.675576, 1491873005.677869, -0.149780, +1.163452, -0.156189, -23.757935, +9.613037, -57.571411
1491873005.678134, 1491873005.680522, -0.149780, +1.163452, -0.156189, -22.689819, +5.676270, -58.914185
1491873005.680793, 1491873005.683217, -0.146667, +1.105225, -0.208374, -22.689819, +5.676270, -58.914185
1491873005.683488, 1491873005.685911, -0.146667, +1.105225, -0.208374, -21.362305, +1.846313, -59.020996
1491873005.686183, 1491873005.688600, -0.146667, +1.105225, -0.208374, -21.362305, +1.846313, -59.020996
1491873005.688871, 1491873005.691298, -0.146667, +1.105225, -0.199585, -21.270752, -2.304077, -59.188843
1491873005.691570, 1491873005.693992, -0.210388, +1.157593, -0.199585, -21.270752, -2.304077, -59.188843
1491873005.694263, 1491873005.696685, -0.210388, +1.157593, -0.199585, -20.324707, -5.447388, -59.219360
1491873005.696955, 1491873005.699377, -0.210388, +1.157593, -0.199585, -20.324707, -5.447388, -59.219360
1491873005.699648, 1491873005.702112, -0.257263, +1.122070, -0.242981, -17.944336, -8.102417, -58.273315
1491873005.702384, 1491873005.704804, -0.278870, +1.122070, -0.242981, -17.944336, -8.102417, -58.273315
1491873005.705076, 1491873005.707499, -0.278870, +1.122070, -0.242981, -15.518188, -11.688232, -56.503296
1491873005.707772, 1491873005.710202, -0.278870, +1.122070, -0.242981, -15.518188, -11.688232, -56.503296
1491873005.710469, 1491873005.712765, -0.173035, +1.038757, -0.263489, -13.214111, -16.464233, -52.566528
1491873005.713030, 1491873005.715333, -0.173035, +1.038757, -0.263489, -13.214111, -16.464233, -52.566528
1491873005.715599, 1491873005.717891, -0.173035, +1.038757, -0.263489, -11.779785, -21.484375, -48.416138
1491873005.718157, 1491873005.720506, -0.173035, +1.038757, -0.263489, -11.779785, -21.484375, -48.416138
1491873005.720773, 1491873005.723064, -0.038452, +0.990784, -0.186035, -10.620117, -26.626587, -43.670654
1491873005.723330, 1491873005.725619, -0.038452, +0.990784, -0.186035, -10.620117, -26.626587, -43.670654
1491873005.725886, 1491873005.728179, -0.038452, +0.990784, -0.186035, -9.124756, -31.021118, -38.055420
1491873005.728446, 1491873005.730854, -0.038452, +0.990784, -0.186035, -9.124756, -31.021118, -38.055420
1491873005.731127, 1491873005.733548, +0.083679, +0.890076, -0.142456, -7.461548, -35.552979, -31.890869
1491873005.733819, 1491873005.736241, +0.083679, +0.890076, -0.142456, -7.461548, -35.552979, -31.890869
1491873005.736512, 1491873005.738932, +0.083679, +0.890076, -0.142456, -5.966187, -39.627075, -23.742676
1491873005.739202, 1491873005.741633, +0.083679, +0.890076, -0.095581, -5.966187, -39.627075, -23.742676
1491873005.741904, 1491873005.744326, +0.267334, +0.771973, -0.110596, -4.592896, -44.601440, -14.892578
1491873005.744601, 1491873005.747022, +0.267334, +0.771973, -0.110596, -4.592896, -44.601440, -14.892578
1491873005.747294, 1491873005.749722, +0.267334, +0.771973, -0.110596, -3.173828, -48.675537, -6.027222
1491873005.749989, 1491873005.752416, +0.267334, +0.701843, -0.054565, -3.173828, -48.675537, -6.027222
1491873005.752685, 1491873005.755108, +0.383789, +0.701843, -0.054565, -1.480103, -51.620483, +2.212524
1491873005.755375, 1491873005.757797, +0.383789, +0.701843, -0.054565, -1.480103, -51.620483, +2.212524
1491873005.758066, 1491873005.760492, +0.383789, +0.701843, -0.054565, -0.076294, -52.825928, +9.719849
1491873005.760762, 1491873005.763186, +0.290405, +0.690674, -0.034973, -0.076294, -52.825928, +9.719849
1491873005.763454, 1491873005.765879, +0.290405, +0.690674, -0.034973, +2.624512, -52.978516, +16.891479
1491873005.766150, 1491873005.768573, +0.290405, +0.690674, -0.034973, +2.624512, -52.978516, +16.891479
1491873005.768844, 1491873005.771246, +0.290405, +0.690674, -0.034973, +5.401611, -53.237915, +24.780273
1491873005.771512, 1491873005.773805, +0.373169, +0.742493, -0.065186, +5.401611, -53.237915, +24.780273
1491873005.774071, 1491873005.776368, +0.373169, +0.742493, -0.065186, +7.583618, -51.757812, +33.493042
1491873005.776741, 1491873005.779040, +0.373169, +0.742493, -0.065186, +7.583618, -51.757812, +33.493042
1491873005.779306, 1491873005.781729, +0.373169, +0.742493, -0.065186, +9.994507, -46.676636, +41.503906
1491873005.782000, 1491873005.784425, +0.536682, +0.765381, -0.056030, +9.994507, -46.676636, +41.503906
1491873005.784697, 1491873005.787121, +0.536682, +0.765381, -0.056030, +12.100220, -38.421631, +48.126221
1491873005.787396, 1491873005.789819, +0.536682, +0.765381, -0.056030, +12.100220, -38.421631, +52.032471
1491873005.790103, 1491873005.792529, +0.536682, +0.765381, -0.069214, +14.450073, -29.998779, +53.497314
1491873005.792803, 1491873005.795230, +0.528259, +0.805115, -0.069214, +14.450073, -29.998779, +57.403564
1491873005.795504, 1491873005.797925, +0.528259, +0.805115, -0.069214, +16.632080, -21.438599, +58.044434
1491873005.798198, 1491873005.800626, +0.528259, +0.805115, -0.069214, +16.632080, -21.438599, +62.744141
1491873005.800900, 1491873005.803323, +0.528259, +0.825256, -0.065186, +19.729614, -13.549805, +62.744141
1491873005.803599, 1491873005.806025, +0.450256, +0.825256, -0.065186, +19.729614, -13.549805, +67.047119
1491873005.806300, 1491873005.808724, +0.450256, +0.825256, -0.065186, +22.659302, -6.118774, +67.047119
1491873005.808998, 1491873005.811426, +0.450256, +0.825256, -0.065186, +22.659302, +1.693726, +71.487427
1491873005.811698, 1491873005.814123, +0.421509, +0.874329, -0.059143, +25.024414, +1.037598, +71.487427
1491873005.814395, 1491873005.816815, +0.421509, +0.874329, -0.059143, +25.024414, +7.949829, +75.851440
1491873005.817089, 1491873005.819508, +0.421509, +0.874329, -0.059143, +26.885986, +7.949829, +75.851440
1491873005.819781, 1491873005.822107, +0.421509, +0.874329, -0.059143, +26.885986, +14.953613, +80.673218
1491873005.822375, 1491873005.824671, +0.396057, +0.893738, -0.073608, +29.403687, +14.953613, +80.673218
1491873005.824938, 1491873005.827236, +0.396057, +0.893738, -0.073608, +29.403687, +22.766113, +84.960938
1491873005.827504, 1491873005.829799, +0.396057, +0.893738, -0.073608, +31.463623, +21.987915, +84.960938
1491873005.830095, 1491873005.832392, +0.396057, +0.893738, -0.073608, +31.463623, +29.800415, +89.096069
1491873005.832660, 1491873005.834957, +0.371338, +0.916077, -0.061523, +32.897949, +28.747559, +89.096069
1491873005.835223, 1491873005.837515, +0.371338, +0.916077, -0.061523, +32.897949, +28.747559, +92.819214
1491873005.837781, 1491873005.840113, +0.371338, +0.916077, -0.061523, +34.759521, +33.584595, +92.819214
1491873005.840380, 1491873005.842800, +0.371338, +0.916077, -0.061523, +34.759521, +33.584595, +95.794678
1491873005.843074, 1491873005.845497, +0.324646, +0.949768, -0.066833, +36.209106, +38.009644, +95.794678
1491873005.845771, 1491873005.848193, +0.324646, +0.949768, -0.066833, +36.209106, +41.915894, +98.861694
1491873005.848468, 1491873005.850901, +0.324646, +0.949768, -0.066833, +37.216187, +41.824341, +98.861694
1491873005.851177, 1491873005.853596, +0.324646, +0.949768, -0.070129, +37.216187, +45.730591, +102.249146
1491873005.853870, 1491873005.856286, +0.288940, +0.982178, -0.070129, +38.238525, +44.860840, +102.249146
1491873005.856560, 1491873005.858982, +0.288940, +0.982178, -0.070129, +38.238525, +48.599243, +105.285645
1491873005.859256, 1491873005.861693, +0.288940, +0.982178, -0.070129, +39.031982, +48.599243, +105.285645
1491873005.861967, 1491873005.864386, +0.195190, +1.028503, -0.060242, +42.938232, +51.834106, +107.894897
1491873005.864659, 1491873005.867078, +0.206360, +1.028503, -0.060242, +39.428711, +51.834106, +107.894897
1491873005.867351, 1491873005.869774, +0.206360, +1.028503, -0.060242, +38.879395, +53.558350, +110.031128
1491873005.870087, 1491873005.872385, +0.206360, +1.028503, -0.060242, +38.879395, +53.558350, +110.031128
1491873005.872652, 1491873005.874949, +0.091736, +1.077026, -0.055481, +38.879395, +54.214478, +112.670898
1491873005.875215, 1491873005.877512, +0.091736, +1.077026, -0.055481, +38.742065, +54.214478, +112.670898
1491873005.877778, 1491873005.880134, +0.091736, +1.077026, -0.055481, +38.742065, +53.283691, +115.356445
1491873005.880516, 1491873005.882938, +0.091736, +1.077026, -0.055481, +38.284302, +53.283691, +115.356445
1491873005.883212, 1491873005.885634, +0.026733, +1.144409, -0.071960, +36.926270, +51.193237, +117.706299
1491873005.885911, 1491873005.888325, +0.026733, +1.144409, -0.071960, +36.926270, +51.193237, +117.706299
1491873005.888599, 1491873005.891029, +0.026733, +1.144409, -0.071960, +36.056519, +49.133301, +120.361328
1491873005.891303, 1491873005.893726, +0.026733, +1.144409, -0.071960, +36.056519, +49.133301, +120.361328
1491873005.893999, 1491873005.896418, +0.035156, +1.186707, -0.104553, +35.659790, +47.744751, +123.382568
1491873005.896693, 1491873005.899118, +0.035156, +1.186707, -0.104553, +35.659790, +47.744751, +123.382568
1491873005.899395, 1491873005.901820, +0.035156, +1.186707, -0.104553, +35.293579, +47.836304, +125.625610
1491873005.902095, 1491873005.904514, +0.035156, +1.186707, -0.107666, +35.293579, +47.836304, +125.625610
1491873005.904788, 1491873005.907209, +0.046143, +1.206665, -0.107666, +34.179688, +47.775269, +127.243042
1491873005.907483, 1491873005.909904, +0.046143, +1.206665, -0.107666, +34.179688, +47.775269, +127.243042
1491873005.910189, 1491873005.912613, +0.046143, +1.206665, -0.107666, +34.011841, +47.882080, +128.479004
1491873005.912889, 1491873005.915310, +0.016663, +1.217834, -0.146301, +34.011841, +47.882080, +128.479004
1491873005.915586, 1491873005.918010, +0.016663, +1.217834, -0.146301, +33.828735, +47.271729, +129.638672
1491873005.918283, 1491873005.920684, +0.016663, +1.217834, -0.146301, +33.828735, +47.271729, +129.638672
1491873005.920952, 1491873005.923247, +0.016663, +1.217834, -0.146301, +33.660889, +45.562744, +130.569458
1491873005.923515, 1491873005.925809, -0.039185, +1.209778, -0.163330, +33.660889, +45.562744, +130.569458
1491873005.926076, 1491873005.928373, -0.039185, +1.209778, -0.163330, +33.737183, +43.289185, +131.179810
1491873005.928640, 1491873005.931042, -0.039185, +1.209778, -0.163330, +33.737183, +43.289185, +131.179810
1491873005.931318, 1491873005.933741, -0.039185, +1.209778, -0.163330, +34.072876, +40.786743, +131.637573
1491873005.934014, 1491873005.936436, -0.038452, +1.218567, -0.181458, +34.072876, +40.786743, +131.637573
1491873005.936711, 1491873005.939131, -0.038452, +1.218567, -0.181458, +34.255981, +38.864136, +132.507324
1491873005.939404, 1491873005.941837, -0.038452, +1.218567, -0.181458, +34.255981, +38.864136, +132.507324
1491873005.942112, 1491873005.944536, -0.038452, +1.218567, -0.228333, +34.652710, +36.987305, +132.904053
1491873005.944809, 1491873005.947228, -0.029297, +1.230286, -0.191345, +34.652710, +36.987305, +132.904053
1491873005.947501, 1491873005.949921, -0.029297, +1.230286, -0.191345, +35.873413, +35.369873, +132.797241
1491873005.950206, 1491873005.952626, -0.029297, +1.230286, -0.191345, +35.873413, +35.369873, +132.797241
1491873005.952898, 1491873005.955325, -0.029297, +1.235413, -0.179443, +36.117554, +34.317017, +132.125854
1491873005.955599, 1491873005.958022, -0.041199, +1.235413, -0.179443, +36.117554, +34.317017, +132.125854
1491873005.958295, 1491873005.960700, -0.041199, +1.235413, -0.179443, +36.117554, +34.210205, +131.546021
1491873005.960967, 1491873005.963266, -0.041199, +1.235413, -0.179443, +36.117554, +34.210205, +131.546021
1491873005.963533, 1491873005.965828, -0.097961, +1.240173, -0.143738, +35.781860, +32.882690, +130.630493
1491873005.966094, 1491873005.968388, -0.097961, +1.240173, -0.143738, +35.781860, +32.882690, +130.630493
1491873005.968654, 1491873005.970979, -0.097961, +1.240173, -0.143738, +35.812378, +30.609131, +129.608154
1491873005.971246, 1491873005.973546, -0.097961, +1.240173, -0.143738, +35.812378, +30.609131, +129.608154
1491873005.973812, 1491873005.976108, -0.130188, +1.261963, -0.142822, +35.781860, +28.106689, +128.631592
1491873005.976374, 1491873005.978670, -0.130188, +1.261963, -0.142822, +35.781860, +28.106689, +128.631592
1491873005.978935, 1491873005.981332, -0.130188, +1.261963, -0.142822, +36.254883, +27.709961, +127.471924
1491873005.981712, 1491873005.984134, -0.130188, +1.261963, -0.142822, +36.254883, +27.709961, +127.471924
1491873005.984408, 1491873005.986830, -0.178528, +1.268372, -0.126343, +36.605835, +29.403687, +125.869751
1491873005.987105, 1491873005.989525, -0.178528, +1.268372, -0.126343, +36.605835, +29.403687, +125.869751
1491873005.989799, 1491873005.992223, -0.178528, +1.268372, -0.126343, +35.369873, +28.945923, +123.229980
1491873005.992497, 1491873005.994921, -0.178528, +1.268372, -0.126343, +35.369873, +28.945923, +123.229980
1491873005.995194, 1491873005.997613, -0.240234, +1.246582, -0.107666, +34.500122, +27.130127, +120.605469
1491873005.997887, 1491873006.000320, -0.240234, +1.246582, -0.107666, +34.500122, +27.130127, +120.605469
1491873006.000596, 1491873006.003016, -0.240234, +1.246582, -0.107666, +34.255981, +24.795532, +117.919922
1491873006.003291, 1491873006.005711, -0.240234, +1.246582, -0.101807, +34.255981, +24.795532, +115.631104
1491873006.005986, 1491873006.008408, -0.195740, +1.210510, -0.101807, +34.286499, +22.323608, +115.631104
1491873006.008681, 1491873006.011117, -0.195740, +1.210510, -0.101807, +34.286499, +22.323608, +113.754272
1491873006.011392, 1491873006.013813, -0.195740, +1.210510, -0.101807, +34.744263, +21.408081, +113.754272
1491873006.014086, 1491873006.016511, -0.101990, +1.187805, -0.123413, +34.744263, +21.408081, +111.740112
1491873006.016787, 1491873006.019209, -0.121948, +1.187805, -0.123413, +34.759521, +22.552490, +111.740112
1491873006.019484, 1491873006.021819, -0.121948, +1.187805, -0.123413, +34.759521, +26.458740, +108.444214
1491873006.022087, 1491873006.024377, -0.121948, +1.187805, -0.123413, +34.729004, +24.139404, +108.444214
1491873006.024644, 1491873006.026939, -0.106384, +1.157043, -0.122498, +34.729004, +24.139404, +105.331421
1491873006.027205, 1491873006.029500, -0.106384, +1.157043, -0.122498, +34.027100, +26.382446, +105.331421
1491873006.029769, 1491873006.032201, -0.106384, +1.157043, -0.122498, +34.027100, +26.382446, +102.371216
1491873006.032476, 1491873006.034894, -0.106384, +1.157043, -0.122498, +33.340454, +28.411865, +102.371216
1491873006.035169, 1491873006.037589, -0.132935, +1.142395, -0.114990, +33.340454, +28.411865, +99.288940
1491873006.037863, 1491873006.040292, -0.132935, +1.142395, -0.114990, +32.653809, +29.815674, +99.288940
1491873006.040566, 1491873006.042987, -0.132935, +1.142395, -0.114990, +32.653809, +30.319214, +96.282959
1491873006.043262, 1491873006.045682, -0.132935, +1.142395, -0.114990, +32.455444, +30.319214, +96.282959
1491873006.045956, 1491873006.048379, -0.129089, +1.164001, -0.127075, +32.455444, +30.776978, +93.460083
1491873006.048654, 1491873006.051085, -0.129089, +1.164001, -0.127075, +31.967163, +30.776978, +93.460083
1491873006.051359, 1491873006.053784, -0.129089, +1.164001, -0.127075, +28.060913, +32.333374, +89.920044
1491873006.054058, 1491873006.056483, -0.129089, +1.164001, -0.117004, +30.609131, +32.333374, +89.920044
1491873006.056759, 1491873006.059178, -0.119934, +1.174255, -0.117004, +29.617310, +33.966064, +86.364746
1491873006.059452, 1491873006.061918, -0.119934, +1.174255, -0.117004, +29.617310, +33.966064, +86.364746
1491873006.062193, 1491873006.064618, -0.119934, +1.174255, -0.117004, +28.427124, +35.858154, +82.977295
1491873006.064891, 1491873006.067311, -0.166809, +1.150818, -0.106018, +28.427124, +35.858154, +82.977295
1491873006.067586, 1491873006.070009, -0.153809, +1.150818, -0.106018, +26.870728, +37.445068, +79.315186
1491873006.070356, 1491873006.072655, -0.153809, +1.150818, -0.106018, +26.870728, +37.445068, +79.315186
1491873006.072923, 1491873006.075222, -0.153809, +1.150818, -0.106018, +25.543213, +39.306641, +75.393677
1491873006.075489, 1491873006.077787, -0.210022, +1.107605, -0.099609, +25.543213, +39.306641, +75.393677
1491873006.078053, 1491873006.080378, -0.210022, +1.107605, -0.099609, +23.941040, +42.648315, +70.510864
1491873006.080653, 1491873006.083076, -0.210022, +1.107605, -0.099609, +23.941040, +42.648315, +70.510864
1491873006.083351, 1491873006.085775, -0.210022, +1.107605, -0.099609, +22.705078, +44.281006, +65.567017
1491873006.086165, 1491873006.088594, -0.302856, +1.039307, -0.077637, +22.705078, +44.281006, +65.567017
1491873006.088869, 1491873006.091295, -0.302856, +1.039307, -0.077637, +21.530151, +42.510986, +61.294556
1491873006.091569, 1491873006.093996, -0.302856, +1.039307, -0.077637, +21.530151, +42.510986, +61.294556
1491873006.094269, 1491873006.096688, -0.302856, +1.039307, -0.124512, +19.805908, +38.803101, +57.205200
1491873006.096962, 1491873006.099386, -0.343506, +1.016418, -0.101807, +19.805908, +38.803101, +57.205200
1491873006.099661, 1491873006.102096, -0.343506, +1.016418, -0.101807, +19.210815, +34.439087, +54.397583
1491873006.102371, 1491873006.104795, -0.343506, +1.016418, -0.101807, +19.210815, +34.439087, +54.397583
1491873006.105070, 1491873006.107495, -0.343506, +1.017700, -0.118286, +18.203735, +30.639648, +52.154541
1491873006.107768, 1491873006.110199, -0.255981, +1.017700, -0.118286, +18.203735, +30.639648, +52.154541
1491873006.110472, 1491873006.112895, -0.255981, +1.017700, -0.118286, +17.501831, +28.594971, +48.736572
1491873006.113168, 1491873006.115589, -0.255981, +1.017700, -0.118286, +17.501831, +28.594971, +48.736572
1491873006.115863, 1491873006.118284, -0.200500, +1.019165, -0.110779, +15.655518, +27.572632, +44.784546
1491873006.118559, 1491873006.120952, -0.200500, +1.019165, -0.110779, +15.655518, +27.572632, +44.784546
1491873006.121219, 1491873006.123519, -0.200500, +1.019165, -0.110779, +13.946533, +25.680542, +41.015625
1491873006.123785, 1491873006.126082, -0.200500, +1.019165, -0.110779, +13.946533, +25.680542, +41.015625
1491873006.126348, 1491873006.128643, -0.248474, +0.994629, -0.124146, +13.168335, +23.468018, +37.094116
1491873006.128908, 1491873006.131323, -0.248474, +0.994629, -0.124146, +13.168335, +23.468018, +37.094116
1491873006.131599, 1491873006.134020, -0.248474, +0.994629, -0.124146, +12.268066, +20.111084, +33.630371
1491873006.134295, 1491873006.136712, -0.248474, +0.994629, -0.124146, +12.268066, +20.111084, +33.630371
1491873006.136986, 1491873006.139408, -0.296814, +0.984558, -0.121948, +10.864258, +15.518188, +30.120850
1491873006.139685, 1491873006.142114, -0.296814, +0.984558, -0.121948, +10.864258, +15.518188, +30.120850
1491873006.142389, 1491873006.144808, -0.296814, +0.984558, -0.121948, +10.009766, +10.498047, +26.214600
1491873006.145084, 1491873006.147505, -0.296814, +0.984558, -0.121948, +10.009766, +10.498047, +22.308350
1491873006.147780, 1491873006.150203, -0.287842, +0.967712, -0.135681, +9.536743, +6.149292, +22.674561
1491873006.150472, 1491873006.152894, -0.287842, +0.967712, -0.135681, +9.536743, +6.149292, +18.768311
1491873006.153162, 1491873006.155588, -0.287842, +0.967712, -0.135681, +8.880615, +2.197266, +19.332886
1491873006.155857, 1491873006.158282, -0.287842, +0.957825, -0.139343, +8.880615, +2.197266, +16.204834
1491873006.158551, 1491873006.160983, -0.261292, +0.957825, -0.139343, +8.255005, -1.190186, +16.204834
1491873006.161253, 1491873006.163678, -0.261292, +0.957825, -0.139343, +8.255005, -1.190186, +12.466431
1491873006.163946, 1491873006.166368, -0.261292, +0.957825, -0.139343, +7.232666, -4.501343, +12.466431
1491873006.166634, 1491873006.169056, -0.269897, +0.949036, -0.134766, +7.232666, -4.501343, +8.682251
1491873006.169321, 1491873006.171671, -0.269897, +0.949036, -0.134766, +6.698608, -6.820679, +8.682251
1491873006.171929, 1491873006.174222, -0.269897, +0.949036, -0.134766, +6.698608, -6.820679, +4.989624
1491873006.174478, 1491873006.176774, -0.269897, +0.949036, -0.134766, +6.698608, -9.231567, +4.989624
1491873006.177032, 1491873006.179327, -0.277405, +0.952332, -0.116821, +6.698608, -9.231567, +1.159668
1491873006.179587, 1491873006.182052, -0.277405, +0.952332, -0.116821, +6.286621, -12.084961, +1.159668
1491873006.182320, 1491873006.184726, -0.277405, +0.952332, -0.116821, +6.286621, -12.084961, -2.014160
1491873006.184993, 1491873006.187399, -0.277405, +0.952332, -0.116821, +6.134033, -14.297485, -2.014160
1491873006.187667, 1491873006.190082, -0.293152, +0.962402, -0.090454, +6.134033, -18.203735, -5.401611
1491873006.190459, 1491873006.192861, -0.293152, +0.962402, -0.090454, +5.966187, -16.494751, -5.401611
1491873006.193130, 1491873006.195531, -0.293152, +0.962402, -0.090454, +5.966187, -19.348145, -9.262085
1491873006.195799, 1491873006.198206, -0.293152, +0.962402, -0.090454, +5.203247, -19.348145, -9.262085
1491873006.198473, 1491873006.200889, -0.306152, +0.985291, -0.071228, +5.203247, -21.499634, -12.649536
1491873006.201159, 1491873006.203564, -0.306152, +0.985291, -0.071228, +4.104614, -21.499634, -12.649536
1491873006.203835, 1491873006.206244, -0.306152, +0.985291, -0.071228, +0.198364, -22.918701, -15.502930
1491873006.206517, 1491873006.208921, -0.306152, +0.985291, -0.045044, +3.051758, -22.918701, -15.502930
1491873006.209192, 1491873006.211613, -0.253235, +1.019165, -0.045044, +3.051758, -23.437500, -19.180298
1491873006.211883, 1491873006.214289, -0.253235, +1.019165, -0.045044, +1.861572, -23.437500, -19.180298
1491873006.214558, 1491873006.216960, -0.253235, +1.019165, -0.045044, -0.183105, -22.781372, -23.010254
1491873006.217230, 1491873006.219641, -0.223938, +1.058716, -0.021790, -0.183105, -22.781372, -23.010254
1491873006.219912, 1491873006.222329, -0.223938, +1.058716, -0.021790, -2.334595, -21.179199, -27.236938
1491873006.222600, 1491873006.225001, -0.223938, +1.058716, -0.021790, -2.334595, -21.179199, -27.236938
1491873006.225271, 1491873006.227674, -0.223938, +1.058716, -0.021790, -4.989624, -18.661499, -30.990601
1491873006.227944, 1491873006.230355, -0.233459, +1.070435, -0.004028, -4.989624, -18.661499, -30.990601
1491873006.230624, 1491873006.233540, -0.233459, +1.070435, -0.004028, -7.202148, -15.625000, -35.552979
1491873006.233808, 1491873006.236100, -0.233459, +1.070435, -0.004028, -7.202148, -15.625000, -35.552979
1491873006.236364, 1491873006.238652, -0.233459, +1.070435, -0.004028, -9.063721, -11.718750, -40.740967
1491873006.238916, 1491873006.241274, -0.245728, +1.034912, -0.000183, -9.063721, -11.718750, -40.740967
1491873006.241538, 1491873006.243831, -0.245728, +1.034912, -0.000183, -11.047363, -7.797241, -45.639038
1491873006.244095, 1491873006.246389, -0.245728, +1.034912, -0.000183, -11.047363, -7.797241, -45.639038
1491873006.246652, 1491873006.248937, -0.245728, +1.034912, -0.093933, -12.207031, -3.189087, -49.636841
1491873006.249200, 1491873006.251600, -0.095581, +1.018799, -0.117920, -12.207031, -3.189087, -49.636841
1491873006.251866, 1491873006.254166, -0.095581, +1.018799, -0.117920, -10.040283, +2.243042, -44.128418
1491873006.254432, 1491873006.256721, -0.095581, +1.018799, -0.117920, -10.040283, +2.243042, -44.128418
1491873006.256986, 1491873006.259276, -0.095581, +1.018799, -0.468567, -5.920410, -2.105713, -42.892456
1491873006.259536, 1491873006.261857, +0.363281, +0.910767, -0.468567, -5.920410, -2.105713, -42.892456
1491873006.262118, 1491873006.264415, +0.363281, +0.910767, -0.468567, -4.501343, -7.751465, -42.129517
1491873006.264674, 1491873006.266971, +0.363281, +0.910767, -0.468567, -4.501343, -7.751465, -42.129517
1491873006.267232, 1491873006.269522, +0.363281, +0.910767, -0.612854, -1.251221, -11.627197, -40.542603
1491873006.269787, 1491873006.272109, +0.660461, +0.937866, -0.612854, -1.251221, -11.627197, -40.542603
1491873006.272374, 1491873006.274677, +0.660461, +0.937866, -0.612854, +2.655029, -25.100708, -35.446167
1491873006.274942, 1491873006.277244, +0.660461, +0.937866, -0.612854, +0.259399, -25.100708, -35.446167
1491873006.277507, 1491873006.279806, +0.660461, +0.890991, -0.687378, +0.259399, -36.560059, -29.541016
1491873006.280119, 1491873006.282548, +0.920471, +0.927063, -0.687378, +3.540039, -36.560059, -29.541016
1491873006.282819, 1491873006.285238, +0.920471, +0.927063, -0.687378, +7.446289, -42.587280, -27.313232
1491873006.285510, 1491873006.287936, +0.920471, +0.927063, -0.687378, +5.096436, -42.587280, -27.313232
1491873006.288207, 1491873006.290673, +0.630432, +0.928345, -0.396423, +3.143311, -43.487549, -28.076172
1491873006.290946, 1491873006.293367, +0.630432, +0.928345, -0.396423, +3.143311, -43.487549, -28.076172
1491873006.293753, 1491873006.296180, +0.630432, +0.928345, -0.396423, -1.068115, -40.328979, -31.661987
1491873006.296452, 1491873006.298875, +0.630432, +0.928345, -0.396423, -1.068115, -40.328979, -31.661987
1491873006.299147, 1491873006.301581, +0.201965, +1.211243, -0.069214, -3.723145, -38.528442, -37.750244
1491873006.301852, 1491873006.304278, +0.201965, +1.211243, -0.069214, -3.723145, -38.528442, -37.750244
1491873006.304549, 1491873006.306969, +0.201965, +1.211243, -0.069214, -5.279541, -39.718628, -43.365479
1491873006.307240, 1491873006.309667, +0.201965, +1.211243, -0.069214, -5.279541, -39.718628, -43.365479
1491873006.309939, 1491873006.312258, +0.207092, +1.271851, -0.070129, -7.400513, -42.984009, -46.081543
1491873006.312523, 1491873006.314825, +0.207092, +1.271851, -0.070129, -7.400513, -42.984009, -46.081543
1491873006.315089, 1491873006.317390, +0.207092, +1.271851, -0.070129, -6.072998, -42.480469, -48.263550
1491873006.317655, 1491873006.319951, +0.207092, +1.271851, -0.257629, -6.072998, -42.480469, -48.263550
1491873006.320222, 1491873006.322631, +0.379761, +1.197693, -0.238403, -3.890991, -37.078857, -51.116943
1491873006.322902, 1491873006.325316, +0.379761, +1.197693, -0.238403, -3.890991, -37.078857, -51.116943
1491873006.325586, 1491873006.327999, +0.379761, +1.197693, -0.238403, -0.320435, -29.953003, -54.458618
1491873006.328270, 1491873006.330688, +0.379761, +1.103943, -0.294983, -0.320435, -29.953003, -54.458618
1491873006.330958, 1491873006.333347, +0.411987, +1.091309, -0.294983, +1.815796, -24.291992, -58.029175
1491873006.333616, 1491873006.336007, +0.411987, +1.091309, -0.294983, +1.815796, -24.291992, -58.029175
1491873006.336275, 1491873006.338671, +0.411987, +1.091309, -0.294983, +2.944946, -18.173218, -60.424805
1491873006.338941, 1491873006.341470, +0.329224, +1.090393, -0.100525, +2.944946, -18.173218, -60.424805
1491873006.341743, 1491873006.344168, +0.329224, +1.090393, -0.100525, +1.541138, -11.856079, -62.011719
1491873006.344441, 1491873006.346867, +0.329224, +1.090393, -0.100525, +1.541138, -11.856079, -62.011719
1491873006.347140, 1491873006.349558, +0.329224, +1.090393, -0.100525, -0.686646, -8.468628, -63.583374
1491873006.349826, 1491873006.352199, +0.198303, +1.108887, +0.052368, -0.686646, -8.468628, -63.583374
1491873006.352461, 1491873006.354760, +0.198303, +1.108887, +0.052368, -0.045776, -3.234863, -66.177368
1491873006.355021, 1491873006.357314, +0.198303, +1.108887, +0.052368, -0.045776, -3.234863, -66.177368
1491873006.357575, 1491873006.359873, +0.198303, +1.108887, +0.052368, +2.548218, +2.746582, -67.825317
1491873006.360132, 1491873006.362423, +0.228882, +1.067871, -0.016113, +2.548218, +2.746582, -67.825317
1491873006.362683, 1491873006.364983, +0.228882, +1.067871, -0.016113, +5.630493, +7.492065, -70.190430
1491873006.365244, 1491873006.367546, +0.228882, +1.067871, -0.016113, +5.630493, +7.492065, -70.190430
1491873006.367809, 1491873006.370148, +0.228882, +1.067871, -0.016113, +9.704590, +11.978149, -71.624756
1491873006.370425, 1491873006.372851, +0.211670, +1.048279, -0.083862, +9.704590, +11.978149, -71.624756
1491873006.373123, 1491873006.375543, +0.211670, +1.048279, -0.083862, +13.046265, +18.844604, -72.052002
1491873006.375817, 1491873006.378239, +0.211670, +1.048279, -0.083862, +13.046265, +18.844604, -72.052002
1491873006.378513, 1491873006.380949, +0.211670, +1.048279, -0.224487, +15.335083, +24.993896, -72.677612
1491873006.381223, 1491873006.383647, +0.058777, +1.055054, -0.192993, +15.335083, +24.993896, -72.677612
1491873006.383923, 1491873006.386341, +0.058777, +1.055054, -0.192993, +18.295288, +27.526855, -73.043823
1491873006.386614, 1491873006.389040, +0.058777, +1.055054, -0.192993, +18.295288, +27.526855, -73.043823
1491873006.389314, 1491873006.391740, +0.058777, +1.117126, -0.502808, +22.720337, +33.889771, -71.792603
1491873006.392014, 1491873006.394445, -0.249207, +1.117126, -0.502808, +22.720337, +33.889771, -71.792603
1491873006.394718, 1491873006.397142, -0.249207, +1.117126, -0.502808, +21.911621, +37.445068, -75.729370
1491873006.397529, 1491873006.399949, -0.249207, +1.117126, -0.502808, +21.911621, +37.445068, -75.729370
1491873006.400216, 1491873006.402520, -0.593262, +1.227173, -0.468567, +17.120361, +26.000977, -75.027466
1491873006.402787, 1491873006.405090, -0.593262, +1.227173, -0.468567, +17.120361, +26.000977, -75.027466
1491873006.405356, 1491873006.407655, -0.593262, +1.227173, -0.468567, +12.649536, +8.987427, -74.157715
1491873006.407919, 1491873006.410287, -0.593262, +1.227173, -0.468567, +12.649536, +8.987427, -74.157715
1491873006.410559, 1491873006.412978, -0.271362, +1.116028, -0.282898, +9.140015, -1.983643, -71.289062
1491873006.413248, 1491873006.415673, -0.271362, +1.116028, -0.282898, +9.140015, -1.983643, -71.289062
1491873006.415943, 1491873006.418363, -0.271362, +1.116028, -0.282898, +9.521484, -3.540039, -65.444946
1491873006.418633, 1491873006.421096, -0.271362, +1.116028, -0.282898, +9.521484, -3.540039, -61.538696
1491873006.421363, 1491873006.423784, -0.030396, +0.905273, -0.383789, +9.552002, -0.152588, -61.447144
1491873006.424055, 1491873006.426476, -0.030396, +0.905273, -0.383789, +9.552002, -0.152588, -59.387207
1491873006.426747, 1491873006.429169, -0.030396, +0.905273, -0.383789, +6.896973, +0.167847, -59.387207
1491873006.429438, 1491873006.431906, -0.030396, +0.905273, -0.273193, +6.896973, +0.167847, -58.639526
1491873006.432174, 1491873006.434594, -0.187683, +0.953613, -0.273193, +4.119873, -2.822876, -58.639526
1491873006.434862, 1491873006.437287, -0.187683, +0.953613, -0.273193, +4.119873, -10.635376, -56.961060
1491873006.437559, 1491873006.439984, -0.187683, +0.953613, -0.273193, +1.495361, -8.255005, -56.961060
1491873006.440303, 1491873006.442727, -0.140808, +1.000488, -0.240417, +1.495361, -17.456055, -54.153442
1491873006.442999, 1491873006.445427, -0.175232, +1.000488, -0.240417, +1.495361, -17.456055, -54.153442
1491873006.445696, 1491873006.448113, -0.175232, +1.000488, -0.240417, +1.495361, -26.397705, -52.093506
1491873006.448383, 1491873006.450772, -0.175232, +1.000488, -0.240417, +1.922607, -26.397705, -52.093506
1491873006.451037, 1491873006.453341, -0.081848, +1.023926, -0.214783, +1.922607, -31.951904, -49.896240
1491873006.453604, 1491873006.455905, -0.081848, +1.023926, -0.214783, +1.205444, -31.951904, -49.896240
1491873006.456168, 1491873006.458474, -0.081848, +1.023926, -0.214783, +1.205444, -34.469604, -47.637939
1491873006.458738, 1491873006.461154, -0.081848, +1.023926, -0.214783, +0.976562, -34.469604, -47.637939
1491873006.461427, 1491873006.463847, -0.019958, +1.017334, -0.170654, +0.976562, -34.576416, -47.775269
1491873006.464118, 1491873006.466549, -0.019958, +1.017334, -0.170654, +1.251221, -34.576416, -47.775269
1491873006.466820, 1491873006.469241, -0.019958, +1.017334, -0.170654, +1.251221, -33.248901, -48.034668
1491873006.469512, 1491873006.471949, -0.019958, +1.017334, -0.170654, +2.273560, -33.248901, -48.034668
1491873006.472221, 1491873006.474645, +0.036438, +1.052856, -0.125427, +2.716064, -30.517578, -46.966553
1491873006.474915, 1491873006.477332, +0.036438, +1.052856, -0.125427, +2.716064, -30.517578, -46.966553
1491873006.477603, 1491873006.480029, +0.036438, +1.052856, -0.125427, +3.753662, -26.336670, -47.485352
1491873006.480348, 1491873006.482772, +0.036438, +1.052856, -0.142273, +3.753662, -26.336670, -47.485352
1491873006.483042, 1491873006.485463, +0.048523, +1.072083, -0.142273, +4.821777, -20.599365, -48.614502
1491873006.485736, 1491873006.488164, +0.048523, +1.072083, -0.142273, +4.821777, -20.599365, -48.614502
1491873006.488436, 1491873006.490905, +0.048523, +1.072083, -0.142273, +5.950928, -14.251709, -49.484253
1491873006.491176, 1491873006.493597, +0.079834, +1.038208, -0.173584, +5.950928, -14.251709, -49.484253
1491873006.493867, 1491873006.496296, +0.079834, +1.038208, -0.173584, +6.744385, -8.529663, -50.704956
1491873006.496566, 1491873006.498983, +0.079834, +1.038208, -0.173584, +6.744385, -8.529663, -50.704956
1491873006.499254, 1491873006.501643, +0.079834, +1.038208, -0.173584, +8.026123, -2.731323, -51.849365
1491873006.502015, 1491873006.504313, +0.097412, +1.003418, -0.197388, +8.026123, -2.731323, -51.849365
1491873006.504575, 1491873006.506877, +0.097412, +1.003418, -0.197388, +8.300781, +2.319336, -52.169800
1491873006.507138, 1491873006.509446, +0.097412, +1.003418, -0.197388, +8.300781, +2.319336, -52.169800
1491873006.509708, 1491873006.512148, +0.097412, +1.003418, -0.197388, +8.010864, +5.523682, -52.307129
1491873006.512417, 1491873006.514845, -0.022888, +1.029602, -0.250122, +8.010864, +5.523682, -52.307129
1491873006.515114, 1491873006.517540, -0.022888, +1.029602, -0.250122, +7.415771, +4.608154, -51.361084
1491873006.517809, 1491873006.520267, -0.022888, +1.029602, -0.250122, +7.415771, +4.608154, -51.361084
1491873006.520536, 1491873006.522965, -0.022888, +1.029602, -0.250122, +6.881714, +1.251221, -48.690796
1491873006.523232, 1491873006.525649, -0.111328, +1.025574, -0.268433, +6.881714, +1.251221, -48.690796
1491873006.525916, 1491873006.528336, -0.111328, +1.025574, -0.268433, +6.637573, -1.174927, -46.279907
1491873006.528604, 1491873006.531034, -0.111328, +1.025574, -0.268433, +6.637573, -1.174927, -46.279907
1491873006.531303, 1491873006.533721, -0.111328, +1.017517, -0.292419, +6.286621, -1.327515, -44.021606
1491873006.533991, 1491873006.536410, -0.143005, +1.017517, -0.292419, +6.286621, -1.327515, -44.021606
1491873006.536678, 1491873006.539103, -0.143005, +1.017517, -0.292419, +4.562378, -2.090454, -42.144775
1491873006.539370, 1491873006.541804, -0.143005, +1.017517, -0.292419, +4.562378, -2.090454, -42.144775
1491873006.542072, 1491873006.544498, -0.173401, +1.033081, -0.280701, +3.051758, -5.264282, -40.191650
1491873006.544765, 1491873006.547189, -0.173401, +1.033081, -0.280701, +3.051758, -5.264282, -40.191650
1491873006.547457, 1491873006.549881, -0.173401, +1.033081, -0.280701, +2.059937, -9.826660, -38.635254
1491873006.550161, 1491873006.552461, -0.173401, +1.033081, -0.280701, +2.059937, -9.826660, -38.635254
1491873006.552721, 1491873006.555019, -0.157288, +1.048096, -0.274841, +2.227783, -13.275146, -36.453247
1491873006.555283, 1491873006.557580, -0.157288, +1.048096, -0.274841, +2.227783, -13.275146, -36.453247
1491873006.557842, 1491873006.560155, -0.157288, +1.048096, -0.274841, +0.930786, -12.664795, -34.545898
1491873006.560427, 1491873006.562852, -0.157288, +1.048096, -0.274841, +0.930786, -12.664795, -34.545898
1491873006.563122, 1491873006.565556, -0.104919, +1.055054, -0.230713, -0.701904, -14.114380, -33.401489
1491873006.565829, 1491873006.568251, -0.104919, +1.055054, -0.230713, -0.701904, -14.114380, -33.401489
1491873006.568524, 1491873006.570950, -0.104919, +1.055054, -0.230713, -1.174927, -15.609741, -33.111572
1491873006.571223, 1491873006.573655, -0.104919, +1.055054, -0.277588, -1.174927, -15.609741, -33.111572
1491873006.573925, 1491873006.576346, -0.038452, +1.043152, -0.253418, +0.061035, -15.533447, -32.989502
1491873006.576616, 1491873006.579038, -0.038452, +1.043152, -0.253418, +0.061035, -15.533447, -33.325195
1491873006.579308, 1491873006.581746, -0.038452, +1.043152, -0.253418, -0.198364, -13.458252, -33.325195
1491873006.582018, 1491873006.584438, -0.038452, +1.043152, -0.237122, -0.198364, -13.458252, -33.493042
1491873006.584708, 1491873006.587130, -0.066650, +1.056152, -0.237122, -2.197266, -10.375977, -33.493042
1491873006.587401, 1491873006.589825, -0.066650, +1.056152, -0.237122, -2.197266, -10.375977, -33.355713
1491873006.590106, 1491873006.592407, -0.066650, +1.056152, -0.237122, -3.311157, -9.384155, -33.355713
1491873006.592668, 1491873006.594968, -0.091187, +1.050476, -0.208008, -3.311157, -9.384155, -33.279419
1491873006.595229, 1491873006.597529, -0.091187, +1.050476, -0.208008, -3.570557, -9.780884, -33.279419
1491873006.597791, 1491873006.600140, -0.091187, +1.050476, -0.208008, -3.570557, -9.780884, -33.203125
1491873006.600403, 1491873006.602704, -0.091187, +1.050476, -0.208008, -4.241943, -8.438110, -33.203125
1491873006.602965, 1491873006.605261, -0.110962, +1.041504, -0.220276, -4.241943, -8.438110, -32.699585
1491873006.605631, 1491873006.607935, -0.110962, +1.041504, -0.220276, -5.401611, -7.873535, -32.699585
1491873006.608194, 1491873006.610527, -0.110962, +1.041504, -0.220276, -5.401611, -7.873535, -32.348633
1491873006.610788, 1491873006.613083, -0.110962, +1.041504, -0.220276, -5.828857, -9.445190, -32.348633
1491873006.613344, 1491873006.615645, -0.142639, +1.036011, -0.249573, -5.828857, -9.445190, -32.348633
1491873006.615906, 1491873006.618203, -0.142639, +1.036011, -0.249573, -5.676270, -11.871338, -31.845093
1491873006.618466, 1491873006.620807, -0.142639, +1.036011, -0.249573, -5.676270, -11.871338, -31.845093
1491873006.621078, 1491873006.623505, -0.142639, +1.036011, -0.249573, -5.798340, -14.862061, -31.402588
1491873006.623777, 1491873006.626198, -0.149048, +1.021179, -0.285645, -5.798340, -14.862061, -27.496338
1491873006.626468, 1491873006.628897, -0.149048, +1.021179, -0.285645, -6.164551, -16.738892, -30.883789
1491873006.629167, 1491873006.631606, -0.149048, +1.021179, -0.285645, -6.164551, -16.738892, -30.456543
1491873006.631877, 1491873006.634303, -0.149048, +1.021179, -0.285645, -6.072998, -18.142700, -30.456543
1491873006.634576, 1491873006.637002, -0.138611, +1.014404, -0.301392, -6.072998, -18.142700, -30.090332
1491873006.637274, 1491873006.639693, -0.138611, +1.014404, -0.301392, -6.622314, -19.210815, -30.090332
1491873006.639963, 1491873006.642393, -0.138611, +1.014404, -0.301392, -6.622314, -23.117065, -29.617310
1491873006.642662, 1491873006.645088, -0.138611, +1.014404, -0.305969, -6.637573, -20.202637, -29.617310
1491873006.645358, 1491873006.647785, -0.119568, +0.998657, -0.305969, -6.637573, -20.202637, -29.403687
1491873006.648057, 1491873006.650490, -0.119568, +0.998657, -0.305969, -7.019043, -20.187378, -29.403687
1491873006.650762, 1491873006.653183, -0.119568, +0.998657, -0.305969, -7.019043, -20.477295, -29.174805
1491873006.653454, 1491873006.655877, -0.166443, +1.010925, -0.285278, -8.377075, -20.477295, -29.174805
1491873006.656146, 1491873006.658572, -0.150330, +1.010925, -0.285278, -8.377075, -21.926880, -28.488159
1491873006.658842, 1491873006.661252, -0.150330, +1.010925, -0.285278, -8.270264, -21.926880, -28.488159
1491873006.661517, 1491873006.663813, -0.150330, +1.010925, -0.285278, -4.364014, -23.040771, -28.656006
1491873006.664076, 1491873006.666380, -0.100159, +1.007446, -0.274841, -7.476807, -23.040771, -28.656006
1491873006.666646, 1491873006.668940, -0.100159, +1.007446, -0.274841, -7.476807, -22.567749, -28.198242
1491873006.669204, 1491873006.671603, -0.100159, +1.007446, -0.274841, -7.522583, -22.567749, -28.198242
1491873006.671877, 1491873006.674302, -0.100159, +1.007446, -0.274841, -7.522583, -21.636963, -27.526855
1491873006.674573, 1491873006.676996, -0.148315, +0.999023, -0.274475, -7.553101, -21.636963, -27.526855
1491873006.677266, 1491873006.679692, -0.148315, +0.999023, -0.274475, -7.553101, -20.858765, -27.450562
1491873006.679964, 1491873006.682399, -0.148315, +0.999023, -0.274475, -6.835938, -20.858765, -27.450562
1491873006.682669, 1491873006.685092, -0.148315, +0.999023, -0.274475, -6.256104, -20.751953, -26.687622
1491873006.685363, 1491873006.687789, -0.178162, +0.995728, -0.211853, -6.256104, -20.751953, -26.687622
1491873006.688060, 1491873006.690489, -0.178162, +0.995728, -0.211853, -5.111694, -20.431519, -26.031494
1491873006.690762, 1491873006.693189, -0.178162, +0.995728, -0.211853, -5.111694, -20.431519, -26.031494
1491873006.693459, 1491873006.695883, -0.178162, +0.948853, -0.224854, -4.379272, -18.951416, -25.512695
1491873006.696154, 1491873006.698578, -0.175232, +0.975586, -0.224854, -4.379272, -18.951416, -25.512695
1491873006.698851, 1491873006.701326, -0.175232, +0.975586, -0.224854, -4.165649, -17.776489, -25.177002
1491873006.701596, 1491873006.704019, -0.175232, +0.975586, -0.224854, -4.165649, -17.776489, -25.177002
1491873006.704289, 1491873006.706716, -0.175781, +0.965149, -0.240967, -3.890991, -17.227173, -24.597168
1491873006.706986, 1491873006.709413, -0.175781, +0.965149, -0.240967, -3.890991, -17.227173, -24.597168
1491873006.709793, 1491873006.712127, -0.175781, +0.965149, -0.240967, -2.899170, -17.318726, -24.322510
1491873006.712394, 1491873006.714695, -0.175781, +0.965149, -0.240967, -2.899170, -17.318726, -24.322510
1491873006.714960, 1491873006.717257, -0.167908, +0.982178, -0.245178, -3.402710, -16.983032, -24.673462
1491873006.717522, 1491873006.719820, -0.167908, +0.982178, -0.245178, -3.402710, -16.983032, -24.673462
1491873006.720100, 1491873006.722404, -0.167908, +0.982178, -0.245178, -4.028320, -16.494751, -24.780273
1491873006.722666, 1491873006.724964, -0.167908, +0.982178, -0.245178, -4.028320, -16.494751, -24.780273
1491873006.725226, 1491873006.727521, -0.177979, +1.005615, -0.263123, -4.043579, -16.067505, -24.887085
1491873006.727783, 1491873006.730128, -0.177979, +1.005615, -0.263123, -4.043579, -16.067505, -24.887085
1491873006.730402, 1491873006.732824, -0.177979, +1.005615, -0.263123, -4.013062, -16.540527, -25.100708
1491873006.733094, 1491873006.735514, -0.177979, +1.005615, -0.263123, -4.013062, -16.540527, -25.100708
1491873006.735784, 1491873006.738209, -0.162048, +1.012756, -0.296448, -4.028320, -17.257690, -25.527954
1491873006.738480, 1491873006.740911, -0.162048, +1.012756, -0.296448, -4.028320, -17.257690, -25.527954
1491873006.741181, 1491873006.743614, -0.162048, +1.012756, -0.296448, -4.501343, -17.761230, -26.077271
1491873006.743884, 1491873006.746308, -0.162048, +1.012756, -0.296448, -4.501343, -17.761230, -26.077271
1491873006.746579, 1491873006.749003, -0.159302, +1.024658, -0.288391, -4.730225, -17.868042, -26.763916
1491873006.749275, 1491873006.751711, -0.159302, +1.024658, -0.288391, -4.730225, -17.868042, -26.763916
1491873006.751982, 1491873006.754407, -0.159302, +1.024658, -0.288391, -5.050659, -18.081665, -27.709961
1491873006.754678, 1491873006.757105, -0.159302, +1.014404, -0.266052, -5.050659, -18.081665, -27.709961
1491873006.757376, 1491873006.759794, -0.157837, +1.014404, -0.266052, -5.538940, -18.295288, -28.594971
1491873006.760074, 1491873006.762373, -0.157837, +1.014404, -0.266052, -5.538940, -18.295288, -28.594971
1491873006.762637, 1491873006.764936, -0.157837, +1.014404, -0.266052, -5.447388, -17.623901, -29.312134
1491873006.765200, 1491873006.767497, -0.157104, +1.009827, -0.252686, -5.447388, -17.623901, -29.312134
1491873006.767761, 1491873006.770101, -0.157104, +1.009827, -0.252686, -5.065918, -17.684937, -30.105591
1491873006.770372, 1491873006.772800, -0.157104, +1.009827, -0.252686, -5.065918, -17.684937, -30.105591
1491873006.773071, 1491873006.775489, -0.157104, +1.009827, -0.252686, -5.493164, -16.906738, -31.280518
1491873006.775762, 1491873006.778192, -0.151428, +1.014771, -0.249390, -5.493164, -16.906738, -31.280518
1491873006.778462, 1491873006.780898, -0.151428, +1.014771, -0.249390, -5.584717, -15.472412, -32.485962
1491873006.781171, 1491873006.783590, -0.151428, +1.014771, -0.249390, -5.584717, -15.472412, -32.485962
1491873006.783861, 1491873006.786289, -0.151428, +1.014771, -0.249390, -6.164551, -14.678955, -34.469604
1491873006.786559, 1491873006.788980, -0.189331, +1.042236, -0.247192, -6.164551, -14.678955, -34.469604
1491873006.789252, 1491873006.791721, -0.189331, +1.042236, -0.247192, -7.263184, -14.755249, -35.522461
1491873006.791991, 1491873006.794419, -0.189331, +1.042236, -0.247192, -7.263184, -14.755249, -35.522461
1491873006.794689, 1491873006.797113, -0.189331, +1.042236, -0.246094, -7.522583, -15.533447, -35.888672
1491873006.797383, 1491873006.799808, -0.214600, +1.037842, -0.246094, -7.522583, -15.533447, -35.888672
1491873006.800088, 1491873006.802506, -0.214600, +1.037842, -0.246094, -8.010864, -16.952515, -36.590576
1491873006.802779, 1491873006.805191, -0.214600, +1.037842, -0.246094, -8.010864, -16.952515, -37.872314
1491873006.805461, 1491873006.807889, -0.214600, +1.043518, -0.264404, -8.987427, -18.081665, -37.872314
1491873006.808160, 1491873006.810575, -0.188599, +1.043518, -0.264404, -8.987427, -18.081665, -38.803101
1491873006.810839, 1491873006.813137, -0.188599, +1.043518, -0.264404, -10.223389, -19.012451, -38.803101
1491873006.813515, 1491873006.815819, -0.188599, +1.043518, -0.264404, -10.223389, -19.012451, -39.718628
1491873006.816085, 1491873006.818388, -0.190247, +1.046997, -0.275940, -11.001587, -20.019531, -39.718628
1491873006.818655, 1491873006.821016, -0.190247, +1.046997, -0.275940, -11.001587, -20.019531, -40.756226
1491873006.821292, 1491873006.823715, -0.190247, +1.046997, -0.275940, -11.352539, -21.301270, -40.756226
1491873006.823989, 1491873006.826409, -0.190247, +1.046997, -0.275940, -11.352539, -21.301270, -41.152954
1491873006.826683, 1491873006.829108, -0.238770, +1.058167, -0.277771, -10.742188, -22.415161, -41.152954
1491873006.829381, 1491873006.831810, -0.238770, +1.058167, -0.277771, -10.742188, -26.321411, -41.763306
1491873006.832085, 1491873006.834505, -0.238770, +1.058167, -0.277771, -10.467529, -24.475098, -41.763306
1491873006.834779, 1491873006.837206, -0.238770, +1.058167, -0.277771, -10.467529, -27.435303, -42.282104
1491873006.837479, 1491873006.839898, -0.286011, +1.039124, -0.289307, -10.025024, -27.435303, -42.282104
1491873006.840181, 1491873006.842606, -0.286011, +1.039124, -0.289307, -10.025024, -30.364990, -42.282104
1491873006.842880, 1491873006.845304, -0.286011, +1.039124, -0.289307, -9.216309, -30.364990, -42.282104
1491873006.845575, 1491873006.848001, -0.286011, +1.039124, -0.201050, -9.216309, -32.226562, -41.992188
1491873006.848273, 1491873006.850714, -0.273560, +1.047546, -0.201050, -9.994507, -32.226562, -41.992188
1491873006.850985, 1491873006.853405, -0.273560, +1.047546, -0.201050, -11.032104, -32.241821, -42.160034
1491873006.853681, 1491873006.856108, -0.273560, +1.047546, -0.201050, -11.032104, -32.241821, -42.160034
1491873006.856383, 1491873006.858814, -0.273560, +1.049011, -0.146851, -11.535645, -31.890869, -42.602539
1491873006.859089, 1491873006.861448, -0.272644, +1.049011, -0.146851, -11.535645, -31.890869, -42.602539
1491873006.861715, 1491873006.864017, -0.272644, +1.049011, -0.146851, -12.161255, -32.104492, -43.273926
1491873006.864283, 1491873006.866579, -0.272644, +1.049011, -0.146851, -12.161255, -32.104492, -43.273926
1491873006.866843, 1491873006.869144, -0.253052, +1.048462, -0.154724, -12.542725, -32.028198, -43.869019
1491873006.869410, 1491873006.871829, -0.253052, +1.048462, -0.154724, -12.542725, -32.028198, -43.869019
1491873006.872105, 1491873006.874526, -0.253052, +1.048462, -0.154724, -13.519287, -31.158447, -44.860840
1491873006.874799, 1491873006.877219, -0.253052, +1.048462, -0.154724, -13.519287, -31.158447, -44.860840
1491873006.877491, 1491873006.879916, -0.231262, +1.055786, -0.214417, -13.381958, -29.968262, -46.203613
1491873006.880200, 1491873006.882626, -0.231262, +1.055786, -0.214417, -13.381958, -29.968262, -46.203613
1491873006.882898, 1491873006.885331, -0.231262, +1.055786, -0.214417, -13.671875, -29.296875, -47.622681
1491873006.885604, 1491873006.888032, -0.231262, +1.055786, -0.214417, -13.671875, -29.296875, -47.622681
1491873006.888304, 1491873006.890738, -0.225220, +1.059265, -0.267334, -14.160156, -28.671265, -48.660278
1491873006.891013, 1491873006.893440, -0.225220, +1.059265, -0.267334, -14.160156, -28.671265, -48.660278
1491873006.893713, 1491873006.896138, -0.225220, +1.059265, -0.267334, -14.724731, -29.266357, -50.323486
1491873006.896411, 1491873006.898835, -0.225220, +1.106140, -0.298645, -14.724731, -29.266357, -50.323486
1491873006.899107, 1491873006.901544, -0.238953, +1.079041, -0.298645, -16.006470, -30.288696, -51.620483
1491873006.901818, 1491873006.904248, -0.238953, +1.079041, -0.298645, -16.006470, -30.288696, -51.620483
1491873006.904521, 1491873006.906946, -0.238953, +1.079041, -0.298645, -17.410278, -31.280518, -53.176880
1491873006.907219, 1491873006.909646, -0.238953, +1.082520, -0.335815, -17.410278, -31.280518, -53.176880
1491873006.909919, 1491873006.912238, -0.243164, +1.082520, -0.335815, -18.356323, -32.836914, -54.733276
1491873006.912504, 1491873006.914807, -0.243164, +1.082520, -0.335815, -18.356323, -32.836914, -54.733276
1491873006.915072, 1491873006.917367, -0.243164, +1.082520, -0.335815, -18.661499, -34.255981, -56.579590
1491873006.917739, 1491873006.920092, -0.269897, +1.097351, -0.322083, -18.661499, -34.255981, -56.579590
1491873006.920366, 1491873006.922796, -0.269897, +1.097351, -0.322083, -19.363403, -36.300659, -57.189941
1491873006.923070, 1491873006.925487, -0.269897, +1.097351, -0.322083, -19.363403, -36.300659, -57.189941
1491873006.925761, 1491873006.928192, -0.269897, +1.097351, -0.322083, -20.950317, -39.138794, -57.922363
1491873006.928466, 1491873006.930896, -0.361084, +1.141296, -0.233459, -20.950317, -39.138794, -57.922363
1491873006.931168, 1491873006.933592, -0.361084, +1.141296, -0.233459, -22.781372, -44.265747, -59.143066
1491873006.933865, 1491873006.936293, -0.361084, +1.141296, -0.233459, -22.781372, -44.265747, -59.143066
1491873006.936568, 1491873006.938990, -0.361084, +1.141296, -0.186584, -24.780273, -49.285889, -60.165405
1491873006.939263, 1491873006.941695, -0.312561, +1.167664, -0.173401, -24.780273, -49.285889, -60.165405
1491873006.941969, 1491873006.944401, -0.312561, +1.167664, -0.173401, -27.236938, -52.917480, -61.462402
1491873006.944673, 1491873006.947097, -0.312561, +1.167664, -0.173401, -27.236938, -52.917480, -65.368652
1491873006.947370, 1491873006.949793, -0.312561, +1.194580, -0.186401, -30.548096, -54.443359, -63.247681
1491873006.950076, 1491873006.952406, -0.236206, +1.194580, -0.186401, -30.548096, -54.443359, -64.773560
1491873006.952674, 1491873006.954969, -0.236206, +1.194580, -0.186401, -32.394409, -54.504395, -64.773560
1491873006.955236, 1491873006.957540, -0.236206, +1.194580, -0.186401, -32.394409, -54.504395, -64.773560
1491873006.957805, 1491873006.960129, -0.236206, +1.213074, -0.207458, -33.843994, -53.863525, -66.406250
1491873006.960396, 1491873006.962691, -0.274658, +1.213074, -0.207458, -33.843994, -53.863525, -66.406250
1491873006.962958, 1491873006.965259, -0.274658, +1.213074, -0.207458, -34.454346, -54.382324, -67.626953
1491873006.965524, 1491873006.967820, -0.274658, +1.213074, -0.207458, -34.454346, -54.382324, -67.626953
1491873006.968085, 1491873006.970415, -0.321533, +1.246033, -0.200134, -36.026001, -55.084229, -69.152832
1491873006.970690, 1491873006.973116, -0.310547, +1.246033, -0.200134, -36.026001, -55.084229, -69.152832
1491873006.973390, 1491873006.975814, -0.310547, +1.246033, -0.200134, -37.017822, -54.962158, -70.373535
1491873006.976087, 1491873006.978514, -0.310547, +1.246033, -0.200134, -37.017822, -54.962158, -70.373535
1491873006.978788, 1491873006.981222, -0.267334, +1.248413, -0.206726, -37.322998, -54.473877, -71.624756
1491873006.981496, 1491873006.983921, -0.267334, +1.248413, -0.206726, -37.322998, -54.473877, -71.624756
1491873006.984193, 1491873006.986623, -0.267334, +1.248413, -0.206726, -37.887573, -54.580688, -72.937012
1491873006.986896, 1491873006.989321, -0.267334, +1.248413, -0.206726, -37.887573, -54.580688, -74.478149
1491873006.989593, 1491873006.992028, -0.251404, +1.269836, -0.168823, -38.024902, -52.856445, -74.478149
1491873006.992300, 1491873006.994720, -0.251404, +1.269836, -0.168823, -38.024902, -52.856445, -76.873779
1491873006.994994, 1491873006.997416, -0.251404, +1.269836, -0.168823, -38.833618, -52.078247, -76.873779
1491873006.997689, 1491873007.000124, -0.251404, +1.269836, -0.106750, -38.833618, -52.078247, -78.903198
1491873007.000398, 1491873007.002823, -0.212402, +1.294739, -0.106750, -39.672852, -52.429199, -78.903198
1491873007.003098, 1491873007.005517, -0.212402, +1.294739, -0.106750, -39.672852, -50.415039, -80.978394
1491873007.005792, 1491873007.008217, -0.212402, +1.294739, -0.106750, -39.993286, -50.415039, -80.978394
1491873007.008492, 1491873007.010890, -0.212402, +1.296936, -0.095947, -39.993286, -48.599243, -83.145142
1491873007.011157, 1491873007.013462, -0.199585, +1.296936, -0.095947, -40.267944, -48.599243, -83.145142
1491873007.013729, 1491873007.016030, -0.199585, +1.296936, -0.095947, -40.267944, -48.263550, -85.418701
1491873007.016295, 1491873007.018589, -0.199585, +1.296936, -0.095947, -40.466309, -48.263550, -85.418701
1491873007.018962, 1491873007.021347, -0.215881, +1.300598, -0.091553, -40.466309, -47.882080, -86.883545
1491873007.021622, 1491873007.024047, -0.215881, +1.300598, -0.091553, -40.771484, -47.882080, -86.883545
1491873007.024322, 1491873007.026740, -0.215881, +1.300598, -0.091553, -40.771484, -47.943115, -88.424683
1491873007.027016, 1491873007.029446, -0.215881, +1.300598, -0.091553, -41.610718, -47.943115, -88.424683
1491873007.029720, 1491873007.032158, -0.213867, +1.352051, -0.033508, -41.610718, -48.431396, -89.447021
1491873007.032431, 1491873007.034859, -0.213867, +1.352051, -0.033508, -42.221069, -48.431396, -89.447021
1491873007.035132, 1491873007.037552, -0.213867, +1.352051, -0.033508, -41.732788, -48.339844, -89.889526
1491873007.037825, 1491873007.040295, -0.213867, +1.352051, -0.033508, -41.732788, -48.339844, -89.889526
1491873007.040571, 1491873007.043001, -0.189697, +1.404053, +0.003479, -41.336060, -47.058105, -90.774536
1491873007.043275, 1491873007.045695, -0.189697, +1.404053, +0.003479, -41.336060, -47.058105, -90.774536
1491873007.045969, 1491873007.048392, -0.189697, +1.404053, +0.003479, -40.527344, -45.486450, -91.354370
1491873007.048665, 1491873007.051106, -0.189697, +1.450928, +0.003662, -40.527344, -45.486450, -91.354370
1491873007.051381, 1491873007.053806, -0.063171, +1.423096, +0.003662, -39.505005, -43.167114, -91.781616
1491873007.054080, 1491873007.056509, -0.063171, +1.423096, +0.003662, -39.505005, -43.167114, -91.781616
1491873007.056783, 1491873007.059203, -0.063171, +1.423096, +0.003662, -38.497925, -40.481567, -92.910767
1491873007.059477, 1491873007.061819, -0.032410, +1.481140, +0.004211, -38.497925, -40.481567, -92.910767
1491873007.062085, 1491873007.064385, -0.032410, +1.481140, +0.004211, -39.352417, -38.452148, -93.765259
1491873007.064651, 1491873007.066948, -0.032410, +1.481140, +0.004211, -39.352417, -38.452148, -93.765259
1491873007.067214, 1491873007.069517, -0.032410, +1.481140, +0.004211, -40.390015, -39.306641, -94.238281
1491873007.069786, 1491873007.072218, -0.049805, +1.489746, -0.004761, -40.390015, -39.306641, -94.238281
1491873007.072496, 1491873007.074917, -0.049805, +1.489746, -0.004761, -41.854858, -44.494629, -95.504761
1491873007.075192, 1491873007.077619, -0.049805, +1.489746, -0.004761, -41.854858, -44.494629, -95.504761
1491873007.077892, 1491873007.080321, -0.049805, +1.489746, -0.004761, -42.678833, -51.818848, -97.656250
1491873007.080594, 1491873007.083019, -0.037720, +1.448914, -0.037170, -42.678833, -51.818848, -97.656250
1491873007.083293, 1491873007.085720, -0.037720, +1.448914, -0.037170, -43.350220, -58.990479, -98.403931
1491873007.085994, 1491873007.088422, -0.037720, +1.448914, -0.037170, -43.350220, -58.990479, -98.403931
1491873007.088695, 1491873007.091084, -0.037720, +1.448914, -0.037170, -44.540405, -66.040039, -100.372314
1491873007.091352, 1491873007.093652, +0.122498, +1.525818, -0.126160, -44.540405, -66.040039, -100.372314
1491873007.093920, 1491873007.096216, +0.122498, +1.525818, -0.126160, -44.250488, -70.556641, -104.171753
1491873007.096483, 1491873007.098783, +0.122498, +1.525818, -0.126160, -44.250488, -70.556641, -104.171753
1491873007.099057, 1491873007.101486, +0.122498, +1.525818, -0.219910, -45.181274, -74.279785, -106.613159
1491873007.101762, 1491873007.104144, +0.283264, +1.712402, -0.219543, -45.181274, -74.279785, -106.613159
1491873007.104416, 1491873007.106803, +0.283264, +1.712402, -0.219543, -49.240112, -80.566406, -109.878540
1491873007.107074, 1491873007.109582, +0.283264, +1.712402, -0.219543, -49.240112, -80.566406, -109.878540
1491873007.109856, 1491873007.112203, +0.283264, +1.633667, -0.267883, -50.796509, -77.331543, -116.516113
1491873007.112473, 1491873007.114772, +0.104919, +1.633667, -0.267883, -50.796509, -77.331543, -116.516113
1491873007.115040, 1491873007.117339, +0.104919, +1.633667, -0.267883, -50.140381, -71.578979, -122.833252
1491873007.117607, 1491873007.119935, +0.104919, +1.633667, -0.267883, -50.140381, -71.578979, -122.833252
1491873007.120209, 1491873007.122631, -0.082581, +1.644104, -0.184937, -50.582886, -65.078735, -129.959106
1491873007.123017, 1491873007.125442, -0.057495, +1.644104, -0.184937, -50.582886, -65.078735, -129.959106
1491873007.125716, 1491873007.128140, -0.057495, +1.644104, -0.184937, -48.675537, -55.618286, -137.924194
1491873007.128414, 1491873007.130877, -0.057495, +1.644104, -0.184937, -48.675537, -55.618286, -137.924194
1491873007.131150, 1491873007.133574, -0.144653, +1.628906, -0.317871, -45.501709, -42.907715, -145.278931
1491873007.133848, 1491873007.136276, -0.144653, +1.628906, -0.317871, -45.501709, -42.907715, -145.278931
1491873007.136550, 1491873007.138973, -0.144653, +1.628906, -0.317871, -44.204712, -26.977539, -150.772095
1491873007.139245, 1491873007.141708, -0.144653, +1.628906, -0.317871, -44.204712, -26.977539, -150.772095
1491873007.141982, 1491873007.144404, -0.130371, +1.558960, -0.463440, -42.373657, -11.413574, -151.901245
1491873007.144678, 1491873007.147101, -0.130371, +1.558960, -0.463440, -42.373657, -11.413574, -152.786255
1491873007.147375, 1491873007.149800, -0.130371, +1.558960, -0.463440, -42.968750, +1.052856, -152.786255
1491873007.150081, 1491873007.152379, -0.130371, +1.558960, -0.398804, -42.968750, +1.052856, -152.816772
1491873007.152643, 1491873007.154942, -0.313660, +1.595947, -0.398804, -43.853760, +13.198853, -152.816772
1491873007.155208, 1491873007.157513, -0.313660, +1.595947, -0.398804, -43.853760, +13.198853, -156.204224
1491873007.157780, 1491873007.160116, -0.313660, +1.595947, -0.398804, -47.698975, +21.270752, -156.204224
1491873007.160391, 1491873007.162814, -0.313660, +1.877197, -0.247742, -47.698975, +21.270752, -162.963867
1491873007.163086, 1491873007.165506, -0.596924, +1.895874, -0.247742, -52.215576, +19.302368, -162.963867
1491873007.165781, 1491873007.168203, -0.596924, +1.895874, -0.247742, -52.215576, +19.302368, -162.155151
1491873007.168476, 1491873007.170910, -0.596924, +1.895874, -0.247742, -57.006836, +10.620117, -162.155151
1491873007.171183, 1491873007.173600, -0.579163, +1.606018, -0.335266, -57.006836, +10.620117, -157.546997
1491873007.173875, 1491873007.176295, -0.579163, +1.606018, -0.335266, -54.901123, +4.043579, -157.546997
1491873007.176566, 1491873007.178994, -0.579163, +1.606018, -0.335266, -54.901123, -3.768921, -146.728516
1491873007.179266, 1491873007.181699, -0.579163, +1.606018, -0.335266, -50.674438, -2.029419, -146.728516
1491873007.181970, 1491873007.184395, -0.131836, +1.166748, -0.479004, -50.674438, -6.317139, -131.637573
1491873007.184666, 1491873007.187081, -0.131836, +1.166748, -0.479004, -44.540405, -6.317139, -131.637573
1491873007.187352, 1491873007.189772, -0.131836, +1.166748, -0.479004, -40.634155, -9.963989, -113.403320
1491873007.190082, 1491873007.192510, -0.131836, +1.166748, -0.479004, -40.405273, -9.963989, -113.403320
1491873007.192781, 1491873007.195203, +0.182739, +0.826172, -0.477173, -36.499023, -13.015747, -98.373413
1491873007.195478, 1491873007.197900, +0.182739, +0.826172, -0.477173, -37.094116, -13.015747, -98.373413
1491873007.198173, 1491873007.200577, +0.182739, +0.826172, -0.477173, -35.720825, -16.906738, -87.295532
1491873007.200844, 1491873007.203143, +0.182739, +0.826172, -0.389648, -35.720825, -16.906738, -87.295532
1491873007.203409, 1491873007.205711, +0.316040, +0.831482, -0.389648, -35.507202, -29.037476, -80.001831
1491873007.205977, 1491873007.208278, +0.316040, +0.831482, -0.389648, -35.507202, -29.037476, -80.001831
1491873007.208544, 1491873007.210926, +0.316040, +0.831482, -0.389648, -31.600952, -46.493530, -75.866699
1491873007.211199, 1491873007.213605, +0.316040, +0.878357, -0.358337, -32.241821, -46.493530, -75.866699
1491873007.213877, 1491873007.216284, +0.328491, +0.845398, -0.358337, -25.253296, -56.365967, -75.622559
1491873007.216555, 1491873007.218961, +0.328491, +0.845398, -0.358337, -25.253296, -56.365967, -75.622559
1491873007.219232, 1491873007.221710, +0.328491, +0.845398, -0.358337, -14.495850, -77.743530, -66.757202
1491873007.221983, 1491873007.224387, -0.080566, +0.396973, -0.312561, -14.495850, -77.743530, -66.757202
1491873007.224769, 1491873007.227181, -0.080566, +0.396973, -0.312561, -7.141113, -110.855103, -65.917969
1491873007.227451, 1491873007.229857, -0.080566, +0.396973, -0.312561, -7.141113, -110.855103, -65.917969
1491873007.230136, 1491873007.232519, -0.080566, +0.396973, -0.312561, -8.926392, -111.679077, -70.892334
1491873007.232789, 1491873007.235179, -0.868103, +0.440918, -0.084412, -8.926392, -111.679077, -70.892334
1491873007.235449, 1491873007.237831, -0.868103, +0.440918, -0.084412, -15.335083, -93.994141, -60.821533
1491873007.238103, 1491873007.240525, -0.868103, +0.440918, -0.084412, -15.335083, -93.994141, -60.821533
1491873007.240801, 1491873007.243229, -0.868103, +0.440918, -0.084412, -19.454956, -87.966919, -36.697388
1491873007.243503, 1491873007.245921, -0.632812, +0.530090, -0.130188, -19.454956, -87.966919, -36.697388
1491873007.246194, 1491873007.248621, -0.632812, +0.530090, -0.130188, -18.386841, -91.262817, -13.442993
1491873007.248895, 1491873007.251265, -0.632812, +0.530090, -0.130188, -18.386841, -91.262817, -13.442993
1491873007.251533, 1491873007.253831, -0.632812, +0.530090, -0.220093, -12.344360, -92.605591, +8.712769
1491873007.254095, 1491873007.256395, -0.513428, +0.201416, -0.220093, -12.344360, -92.605591, +8.712769
1491873007.256661, 1491873007.258959, -0.513428, +0.201416, -0.220093, -3.448486, -90.026855, +29.388428
1491873007.259223, 1491873007.261615, -0.513428, +0.201416, -0.220093, -3.448486, -90.026855, +29.388428
1491873007.261887, 1491873007.264317, -0.513428, +0.201416, -0.185303, +4.745483, -83.953857, +45.700073
1491873007.264588, 1491873007.267010, -0.191162, +0.193359, -0.185303, +4.745483, -83.953857, +45.700073
1491873007.267281, 1491873007.269706, -0.191162, +0.193359, -0.185303, +12.527466, -74.981689, +57.189941
1491873007.269980, 1491873007.272408, -0.191162, +0.193359, -0.185303, +12.527466, -74.981689, +57.189941
1491873007.272682, 1491873007.275101, -0.017029, +0.239319, -0.159302, +20.233154, -63.964844, +65.307617
1491873007.275375, 1491873007.277800, -0.017029, +0.239319, -0.159302, +20.233154, -63.964844, +65.307617
1491873007.278074, 1491873007.280508, -0.017029, +0.239319, -0.159302, +27.191162, -51.651001, +72.280884
1491873007.280783, 1491873007.283204, -0.017029, +0.239319, -0.159302, +27.191162, -51.651001, +72.280884
1491873007.283480, 1491873007.285908, +0.094849, +0.251770, -0.169189, +33.584595, -36.270142, +80.535889
1491873007.286183, 1491873007.288603, +0.094849, +0.251770, -0.169189, +33.584595, -36.270142, +80.535889
1491873007.288878, 1491873007.291316, +0.094849, +0.251770, -0.169189, +36.987305, -19.363403, +89.782715
1491873007.291591, 1491873007.294017, +0.094849, +0.251770, -0.169189, +36.987305, -19.363403, +89.782715
1491873007.294290, 1491873007.296708, +0.252686, +0.312744, -0.122131, +37.902832, -0.061035, +97.564697
1491873007.296982, 1491873007.299403, +0.252686, +0.312744, -0.122131, +37.902832, -0.061035, +109.283447
1491873007.299678, 1491873007.302008, +0.252686, +0.312744, -0.122131, +37.612915, +18.783569, +105.880737
1491873007.302275, 1491873007.304574, +0.252686, +0.312744, -0.046143, +37.612915, +18.783569, +105.880737
1491873007.304841, 1491873007.307148, +0.412354, +0.333801, -0.046143, +41.244507, +41.809082, +112.228394
1491873007.307414, 1491873007.309717, +0.412354, +0.333801, -0.046143, +41.244507, +41.809082, +112.228394
1491873007.309983, 1491873007.312436, +0.412354, +0.333801, -0.046143, +47.760010, +66.207886, +119.705200
1491873007.312712, 1491873007.315133, +0.412354, +0.708801, -0.150330, +47.760010, +66.207886, +131.423950
1491873007.315407, 1491873007.317828, +0.306335, +0.730774, -0.150330, +50.079346, +86.914062, +129.272461
1491873007.318104, 1491873007.320543, +0.306335, +0.730774, -0.150330, +50.079346, +86.914062, +137.084961
1491873007.320819, 1491873007.323244, +0.306335, +0.730774, -0.150330, +44.265747, +95.977783, +138.519287
1491873007.323518, 1491873007.325941, +0.036072, +0.689209, -0.060791, +44.265747, +95.977783, +147.033691
1491873007.326215, 1491873007.328644, +0.036072, +0.689209, -0.060791, +39.566040, +93.765259, +147.033691
1491873007.329027, 1491873007.331511, +0.036072, +0.689209, -0.060791, +39.566040, +89.859009, +154.541016
1491873007.331787, 1491873007.334216, +0.036072, +0.689209, -0.060791, +39.993286, +92.544556, +154.541016
1491873007.334490, 1491873007.336914, -0.026917, +0.424805, -0.118835, +39.993286, +89.981079, +160.568237
1491873007.337189, 1491873007.339616, -0.026917, +0.424805, -0.118835, +43.411255, +89.981079, +160.568237
1491873007.339892, 1491873007.342333, -0.026917, +0.424805, -0.118835, +47.317505, +83.847046, +167.938232
1491873007.342607, 1491873007.345022, -0.026917, +0.424805, -0.118835, +47.500610, +83.847046, +167.938232
1491873007.345300, 1491873007.347721, +0.001648, +0.463989, -0.139160, +47.500610, +78.491211, +175.292969
1491873007.347997, 1491873007.350428, +0.001648, +0.463989, -0.139160, +48.828125, +78.491211, +175.292969
1491873007.350696, 1491873007.352998, +0.001648, +0.463989, -0.139160, +49.743652, +78.277588, +180.862427
1491873007.353264, 1491873007.355571, +0.001648, +0.698364, -0.121582, +49.743652, +78.277588, +180.862427
1491873007.355838, 1491873007.358139, -0.069397, +0.679138, -0.121582, +49.743652, +82.687378, +185.882568
1491873007.358404, 1491873007.360718, -0.069397, +0.679138, -0.121582, +49.926758, +82.687378, +185.882568
1491873007.360986, 1491873007.363286, -0.069397, +0.679138, -0.121582, +49.926758, +86.593628, +191.390991
1491873007.363553, 1491873007.365850, -0.069397, +0.805847, -0.117920, +49.835205, +86.593628, +191.390991
1491873007.366118, 1491873007.368411, -0.248108, +0.805847, -0.117920, +49.835205, +86.196899, +199.310303
1491873007.368679, 1491873007.371083, -0.248108, +0.805847, -0.117920, +50.170898, +86.196899, +199.310303
1491873007.371358, 1491873007.373783, -0.248108, +0.805847, -0.117920, +50.170898, +84.091187, +205.764771
1491873007.374059, 1491873007.376486, -0.388733, +0.842285, -0.120300, +52.368164, +84.091187, +205.764771
1491873007.376761, 1491873007.379187, -0.375549, +0.842285, -0.120300, +56.274414, +80.657959, +213.241577
1491873007.379462, 1491873007.381899, -0.375549, +0.842285, -0.120300, +56.076050, +80.657959, +213.241577
1491873007.382174, 1491873007.384602, -0.375549, +0.842285, -0.120300, +59.692383, +75.363159, +221.435547
1491873007.384879, 1491873007.387302, -0.350098, +0.979614, -0.116821, +59.692383, +75.363159, +221.435547
1491873007.387577, 1491873007.390001, -0.350098, +0.979614, -0.116821, +62.255859, +70.663452, +227.478027
1491873007.390324, 1491873007.392753, -0.350098, +0.979614, -0.116821, +62.255859, +70.663452, +227.478027
1491873007.393027, 1491873007.395455, -0.350098, +0.979614, -0.116821, +64.361572, +66.940308, +232.528687
1491873007.395732, 1491873007.398160, -0.221191, +1.107605, -0.127258, +64.361572, +66.940308, +232.528687
1491873007.398434, 1491873007.400898, -0.221191, +1.107605, -0.127258, +64.987183, +64.132690, +237.075806
1491873007.401171, 1491873007.403595, -0.221191, +1.107605, -0.127258, +64.987183, +64.132690, +237.075806
1491873007.403868, 1491873007.406292, -0.221191, +1.107605, -0.124695, +63.980103, +62.942505, +240.539551
1491873007.406566, 1491873007.408989, -0.164612, +1.266541, -0.124695, +63.980103, +62.942505, +240.539551
1491873007.409265, 1491873007.411615, -0.164612, +1.266541, -0.124695, +62.454224, +62.850952, +243.301392
1491873007.411883, 1491873007.414183, -0.164612, +1.266541, -0.124695, +62.454224, +62.850952, +243.301392
1491873007.414451, 1491873007.416749, -0.164612, +1.352966, -0.134399, +59.997559, +62.622070, +245.056152
1491873007.417014, 1491873007.419322, -0.230347, +1.352966, -0.134399, +59.997559, +62.622070, +245.056152
1491873007.419588, 1491873007.422069, -0.230347, +1.352966, -0.134399, +57.449341, +61.172485, +246.658325
1491873007.422345, 1491873007.424772, -0.230347, +1.352966, -0.134399, +57.449341, +61.172485, +246.658325
1491873007.425044, 1491873007.427477, -0.312012, +1.389038, -0.147949, +55.450439, +59.143066, +248.352051
1491873007.427751, 1491873007.430187, -0.312012, +1.389038, -0.147949, +55.450439, +59.143066, +248.352051
1491873007.430566, 1491873007.432991, -0.312012, +1.389038, -0.147949, +54.046631, +56.838989, +251.022339
1491873007.433265, 1491873007.435695, -0.312012, +1.389038, -0.147949, +54.046631, +56.838989, +251.022339
1491873007.435968, 1491873007.438390, -0.355774, +1.415955, -0.168640, +52.993774, +54.443359, +254.333496
1491873007.438665, 1491873007.441105, -0.355774, +1.415955, -0.168640, +52.993774, +54.443359, +254.333496
1491873007.441379, 1491873007.443800, -0.355774, +1.415955, -0.168640, +52.368164, +52.017212, +256.820679
1491873007.444074, 1491873007.446501, -0.355774, +1.415955, -0.215515, +52.368164, +52.017212, +256.820679
1491873007.446775, 1491873007.449202, -0.333801, +1.449646, -0.208374, +52.352905, +50.048828, +258.773804
1491873007.449477, 1491873007.451942, -0.333801, +1.449646, -0.208374, +52.352905, +50.048828, +258.773804
1491873007.452217, 1491873007.454637, -0.333801, +1.449646, -0.208374, +53.451538, +49.087524, +260.543823
1491873007.454912, 1491873007.457339, -0.333801, +1.507141, -0.273743, +53.451538, +49.087524, +261.505127
1491873007.457612, 1491873007.460035, -0.312378, +1.507141, -0.273743, +54.992676, +48.645020, +261.505127
1491873007.460341, 1491873007.462644, -0.312378, +1.507141, -0.273743, +54.992676, +48.645020, +261.520386
1491873007.462910, 1491873007.465211, -0.312378, +1.507141, -0.273743, +55.953979, +48.843384, +261.520386
1491873007.465477, 1491873007.467774, -0.315491, +1.595398, -0.310547, +55.953979, +48.843384, +261.520386
1491873007.468040, 1491873007.470347, -0.315491, +1.595398, -0.310547, +57.891846, +49.133301, +260.848999
1491873007.470615, 1491873007.472908, -0.315491, +1.595398, -0.310547, +57.891846, +49.133301, +260.848999
1491873007.473177, 1491873007.475469, -0.315491, +1.595398, -0.310547, +59.448242, +50.643921, +258.926392
1491873007.475734, 1491873007.478038, -0.333984, +1.666992, -0.317505, +59.448242, +50.643921, +258.926392
1491873007.478304, 1491873007.480682, -0.333984, +1.666992, -0.317505, +61.218262, +52.093506, +255.935669
1491873007.480956, 1491873007.483384, -0.333984, +1.666992, -0.317505, +61.218262, +52.093506, +255.935669
1491873007.483657, 1491873007.486080, -0.333984, +1.666992, -0.317505, +63.766479, +54.824829, +252.578735
1491873007.486354, 1491873007.488773, -0.332153, +1.727051, -0.308350, +63.766479, +54.824829, +248.672485
1491873007.489048, 1491873007.491523, -0.332153, +1.727051, -0.308350, +65.887451, +59.188843, +248.397827
1491873007.491798, 1491873007.494218, -0.332153, +1.727051, -0.308350, +65.887451, +59.188843, +244.735718
1491873007.494491, 1491873007.496909, -0.332153, +1.727051, -0.308350, +68.099976, +65.109253, +244.735718
1491873007.497184, 1491873007.499612, -0.338379, +1.769348, -0.286194, +68.099976, +65.109253, +240.356445
1491873007.499887, 1491873007.502388, -0.338379, +1.769348, -0.286194, +69.488525, +71.868896, +240.356445
1491873007.502663, 1491873007.505093, -0.338379, +1.769348, -0.286194, +69.488525, +79.681396, +236.679077
1491873007.505368, 1491873007.507790, -0.338379, +1.769348, -0.248840, +69.366455, +78.933716, +236.679077
1491873007.508064, 1491873007.510499, -0.412720, +1.767883, -0.248840, +69.366455, +83.114624, +232.437134
1491873007.510774, 1491873007.513200, -0.412720, +1.767883, -0.248840, +69.076538, +83.114624, +232.437134
1491873007.513475, 1491873007.515899, -0.412720, +1.767883, -0.248840, +69.076538, +83.282471, +228.256226
1491873007.516175, 1491873007.518596, -0.506470, +1.716064, -0.213501, +69.290161, +83.282471, +228.256226
1491873007.518873, 1491873007.521248, -0.509949, +1.716064, -0.213501, +69.290161, +81.756592, +224.151611
1491873007.521516, 1491873007.523814, -0.509949, +1.716064, -0.213501, +68.862915, +81.756592, +224.151611
1491873007.524081, 1491873007.526388, -0.509949, +1.716064, -0.213501, +68.862915, +79.193115, +219.985962
1491873007.526655, 1491873007.528951, -0.574219, +1.695740, -0.169556, +68.725586, +79.193115, +219.985962
1491873007.529217, 1491873007.531611, -0.574219, +1.695740, -0.169556, +68.725586, +76.797485, +215.713501
1491873007.531886, 1491873007.534316, -0.574219, +1.695740, -0.169556, +68.405151, +76.797485, +215.713501
1491873007.534702, 1491873007.537125, -0.574219, +1.695740, -0.169556, +67.428589, +75.927734, +210.174561
1491873007.537400, 1491873007.539817, -0.608826, +1.695374, -0.139526, +67.428589, +75.927734, +210.174561
1491873007.540101, 1491873007.542526, -0.608826, +1.695374, -0.139526, +66.543579, +76.599121, +204.345703
1491873007.542801, 1491873007.545225, -0.608826, +1.695374, -0.139526, +66.543579, +76.599121, +204.345703
1491873007.545498, 1491873007.547919, -0.608826, +1.695374, -0.139526, +64.056396, +77.514648, +198.532104
1491873007.548194, 1491873007.550624, -0.673645, +1.706726, -0.112610, +64.056396, +77.514648, +198.532104
1491873007.550899, 1491873007.553323, -0.673645, +1.706726, -0.112610, +61.676025, +76.950073, +191.787720
1491873007.553598, 1491873007.556020, -0.673645, +1.706726, -0.112610, +61.676025, +76.950073, +191.787720
1491873007.556294, 1491873007.558714, -0.673645, +1.659851, -0.099609, +58.990479, +76.599121, +184.234619
1491873007.558988, 1491873007.561417, -0.697632, +1.673035, -0.099609, +58.990479, +76.599121, +184.234619
1491873007.561693, 1491873007.564121, -0.697632, +1.673035, -0.099609, +56.198120, +76.354980, +177.062988
1491873007.564396, 1491873007.566816, -0.697632, +1.673035, -0.099609, +56.198120, +76.354980, +177.062988
1491873007.567090, 1491873007.569514, -0.706421, +1.591553, -0.072693, +53.314209, +76.217651, +169.601440
1491873007.569788, 1491873007.572101, -0.706421, +1.591553, -0.072693, +53.314209, +76.217651, +169.601440
1491873007.572370, 1491873007.574667, -0.706421, +1.591553, -0.072693, +49.911499, +76.721191, +162.063599
1491873007.574934, 1491873007.577235, -0.706421, +1.591553, -0.072693, +49.911499, +76.721191, +162.063599
1491873007.577501, 1491873007.579797, -0.720520, +1.500183, -0.055664, +47.027588, +77.529907, +155.120850
1491873007.580098, 1491873007.582540, -0.720520, +1.500183, -0.055664, +47.027588, +77.529907, +155.120850
1491873007.582813, 1491873007.585226, -0.720520, +1.500183, -0.055664, +44.784546, +76.904297, +147.903442
1491873007.585497, 1491873007.587905, -0.720520, +1.500183, -0.055664, +44.784546, +76.904297, +147.903442
1491873007.588177, 1491873007.590595, -0.744141, +1.374390, -0.082031, +43.869019, +76.431274, +140.350342
1491873007.590870, 1491873007.593281, -0.744141, +1.374390, -0.082031, +43.869019, +76.431274, +140.350342
1491873007.593556, 1491873007.595963, -0.744141, +1.374390, -0.082031, +43.075562, +76.995850, +132.598877
1491873007.596237, 1491873007.598650, -0.744141, +1.374390, -0.082031, +43.075562, +76.995850, +132.598877
1491873007.598923, 1491873007.601323, -0.810059, +1.303345, -0.111328, +42.205811, +75.851440, +123.947144
1491873007.601593, 1491873007.603897, -0.810059, +1.303345, -0.111328, +42.205811, +75.851440, +123.947144
1491873007.604164, 1491873007.606470, -0.810059, +1.303345, -0.111328, +40.481567, +73.989868, +114.410400
1491873007.606737, 1491873007.609031, -0.810059, +1.303345, -0.094116, +40.481567, +73.989868, +114.410400
1491873007.609297, 1491873007.611655, -0.977417, +1.274597, -0.094116, +39.230347, +70.083618, +104.187012
1491873007.611924, 1491873007.614220, -0.977417, +1.274597, -0.094116, +39.230347, +70.083618, +104.187012
1491873007.614489, 1491873007.616783, -0.977417, +1.274597, -0.094116, +38.619995, +63.705444, +93.841553
1491873007.617051, 1491873007.619346, -0.977417, +1.274597, -0.091187, +38.619995, +63.705444, +93.841553
1491873007.619613, 1491873007.621911, -1.136536, +1.230286, -0.091187, +36.682129, +54.626465, +83.190918
1491873007.622177, 1491873007.624469, -1.136536, +1.230286, -0.091187, +36.682129, +54.626465, +83.190918
1491873007.624735, 1491873007.627034, -1.136536, +1.230286, -0.091187, +35.095215, +43.121338, +72.875977
1491873007.627299, 1491873007.629597, -1.136536, +1.183411, -0.065552, +35.095215, +43.121338, +72.875977
1491873007.629862, 1491873007.632315, -1.155396, +1.193665, -0.065552, +33.798218, +31.311035, +62.728882
1491873007.632587, 1491873007.635009, -1.155396, +1.193665, -0.065552, +33.798218, +31.311035, +62.728882
1491873007.635389, 1491873007.637809, -1.155396, +1.193665, -0.065552, +32.226562, +22.384644, +52.093506
1491873007.638083, 1491873007.640517, -1.017883, +1.182495, -0.001282, +32.226562, +22.384644, +52.093506
1491873007.640791, 1491873007.643217, -1.017883, +1.182495, -0.001282, +30.059814, +17.318726, +41.244507
1491873007.643490, 1491873007.645910, -1.017883, +1.182495, -0.001282, +30.059814, +17.318726, +41.244507
1491873007.646183, 1491873007.648610, -1.017883, +1.182495, -0.001282, +26.901245, +14.648438, +30.609131
1491873007.648884, 1491873007.651312, -0.885315, +1.128845, +0.100525, +26.901245, +14.648438, +30.609131
1491873007.651587, 1491873007.654009, -0.885315, +1.128845, +0.100525, +23.193359, +13.961792, +19.332886
1491873007.654283, 1491873007.656705, -0.885315, +1.128845, +0.100525, +23.193359, +13.961792, +19.332886
1491873007.656978, 1491873007.659402, -0.885315, +1.128845, +0.100525, +18.234253, +14.892578, +8.026123
1491873007.659674, 1491873007.662109, -0.848877, +1.085266, +0.165527, +18.234253, +14.892578, +8.026123
1491873007.662381, 1491873007.664798, -0.848877, +1.085266, +0.165527, +13.931274, +16.159058, -3.005981
1491873007.665070, 1491873007.667490, -0.848877, +1.085266, +0.165527, +13.931274, +16.159058, -3.005981
1491873007.667760, 1491873007.670200, -0.848877, +1.085266, +0.179443, +9.170532, +18.493652, -14.312744
1491873007.670463, 1491873007.672754, -0.878174, +1.098633, +0.179443, +9.170532, +18.493652, -14.312744
1491873007.673017, 1491873007.675319, -0.878174, +1.098633, +0.179443, +3.753662, +21.499634, -25.238037
1491873007.675582, 1491873007.677873, -0.878174, +1.098633, +0.179443, +3.753662, +21.499634, -25.238037
1491873007.678136, 1491873007.680499, -0.878174, +1.145508, +0.154175, -2.059937, +22.750854, -35.369873
1491873007.680768, 1491873007.683179, -0.960754, +1.150452, +0.154175, -2.059937, +22.750854, -35.369873
1491873007.683449, 1491873007.685853, -0.960754, +1.150452, +0.154175, -6.591797, +20.385742, -45.532227
1491873007.686122, 1491873007.688526, -0.960754, +1.150452, +0.154175, -6.591797, +20.385742, -45.532227
1491873007.688794, 1491873007.691212, -1.007629, +1.176086, +0.069580, -10.345459, +17.257690, -54.962158
1491873007.691484, 1491873007.693893, -1.022644, +1.176086, +0.069580, -10.345459, +17.257690, -62.774658
1491873007.694163, 1491873007.696577, -1.022644, +1.176086, +0.069580, -13.183594, +13.931274, -63.430786
1491873007.696850, 1491873007.699253, -1.022644, +1.176086, +0.069580, -13.183594, +13.931274, -71.243286
1491873007.699525, 1491873007.702025, -0.979980, +1.155945, +0.050171, -15.975952, +10.498047, -70.571899
1491873007.702302, 1491873007.704729, -0.979980, +1.155945, +0.050171, -15.975952, +10.498047, -78.109741
1491873007.705004, 1491873007.707423, -0.979980, +1.155945, +0.050171, -18.112183, +8.697510, -78.109741
1491873007.707695, 1491873007.710125, -0.979980, +1.155945, +0.050171, -18.112183, +8.697510, -85.876465
1491873007.710400, 1491873007.712827, -0.724915, +1.182312, -0.051819, -18.753052, +10.726929, -85.876465
1491873007.713101, 1491873007.715529, -0.724915, +1.182312, -0.051819, -18.753052, +30.258179, -81.985474
1491873007.715803, 1491873007.718232, -0.724915, +1.182312, -0.051819, -8.438110, +27.816772, -81.985474
1491873007.718506, 1491873007.720900, -0.724915, +1.182312, -0.383789, -8.438110, +40.145874, -84.625244
1491873007.721164, 1491873007.723464, -0.012085, +0.926514, -0.383789, -10.848999, +40.145874, -84.625244
1491873007.723730, 1491873007.726032, -0.012085, +0.926514, -0.383789, -10.848999, +32.333374, -92.926025
1491873007.726299, 1491873007.728598, -0.012085, +0.926514, -0.383789, -16.021729, +31.311035, -92.926025
1491873007.728867, 1491873007.731164, -0.012085, +1.020264, -0.849976, -16.021729, +23.498535, -82.916260
1491873007.731431, 1491873007.733731, +0.867004, +0.996094, -0.849976, -11.947632, +25.833130, -82.916260
1491873007.733998, 1491873007.736287, +0.867004, +0.996094, -0.849976, -11.947632, +25.833130, -67.062378
1491873007.736552, 1491873007.738854, +0.867004, +0.996094, -0.849976, +2.075195, +16.021729, -67.062378
1491873007.739228, 1491873007.741626, +0.867004, +0.964600, -1.322571, +2.075195, +16.021729, -59.432983
1491873007.741897, 1491873007.744321, +1.896423, +0.964600, -1.322571, +12.374878, -14.083862, -59.432983
1491873007.744593, 1491873007.747022, +1.896423, +0.964600, -1.322571, +12.374878, -33.615112, -62.103271
1491873007.747296, 1491873007.749721, +1.896423, +0.964600, -1.322571, +10.055542, -32.745361, -62.103271
1491873007.749993, 1491873007.752416, +1.070984, +1.246033, -0.462524, +10.055542, -29.495239, -71.334839
1491873007.752689, 1491873007.755112, +1.070984, +1.246033, -0.462524, +2.090454, -29.495239, -71.334839
1491873007.755381, 1491873007.757800, +1.070984, +1.246033, -0.462524, -5.722046, -16.952515, -82.916260
1491873007.758071, 1491873007.760506, +1.070984, +1.246033, -0.462524, -6.011963, -16.952515, -82.916260
1491873007.760777, 1491873007.763195, +0.195374, +1.722290, +0.302490, -6.011963, -2.716064, -96.649170
1491873007.763463, 1491873007.765884, +0.195374, +1.722290, +0.302490, -7.003784, -2.716064, -96.649170
1491873007.766150, 1491873007.768580, +0.195374, +1.722290, +0.302490, -2.868652, +11.108398, -108.688354
1491873007.768851, 1491873007.771311, +0.195374, +1.722290, +0.302490, -2.868652, +11.108398, -108.688354
1491873007.771582, 1491873007.774005, +0.026001, +1.738586, -0.122681, +4.135132, +20.050049, -117.202759
1491873007.774279, 1491873007.776706, +0.026001, +1.738586, -0.122681, +4.135132, +20.050049, -117.202759
1491873007.776978, 1491873007.779404, +0.026001, +1.738586, -0.122681, +8.895874, +21.728516, -122.848511
1491873007.779677, 1491873007.782015, +0.026001, +1.597961, -0.267151, +8.895874, +21.728516, -122.848511
1491873007.782279, 1491873007.784578, +0.123047, +1.602905, -0.267151, +9.811401, +19.943237, -124.649048
1491873007.784842, 1491873007.787141, +0.123047, +1.602905, -0.267151, +9.811401, +19.943237, -124.649048
1491873007.787404, 1491873007.789706, +0.123047, +1.602905, -0.267151, +6.439209, +12.710571, -124.633789
1491873007.789970, 1491873007.792391, +0.123047, +1.442322, +0.187683, +6.439209, +12.710571, -124.633789
1491873007.792662, 1491873007.795064, -0.159485, +1.442322, +0.187683, +3.753662, +9.796143, -124.252319
1491873007.795334, 1491873007.797744, -0.159485, +1.442322, +0.187683, +3.753662, +9.796143, -124.252319
1491873007.798012, 1491873007.800417, -0.159485, +1.442322, +0.187683, +3.280640, +9.948730, -124.069214
1491873007.800705, 1491873007.803138, -0.372070, +1.249695, +0.074341, +3.280640, +9.948730, -124.069214
1491873007.803407, 1491873007.805830, -0.372070, +1.249695, +0.074341, +7.583618, +7.278442, -120.895386
1491873007.806098, 1491873007.808518, -0.372070, +1.249695, +0.074341, +7.583618, +7.278442, -120.895386
1491873007.808788, 1491873007.811213, -0.372070, +1.249695, +0.074341, +12.573242, +6.607056, -116.012573
1491873007.811488, 1491873007.813909, -0.208923, +1.113281, -0.404663, +12.573242, +6.607056, -116.012573
1491873007.814181, 1491873007.816602, -0.208923, +1.113281, -0.404663, +22.674561, +22.277832, -111.801147
1491873007.816877, 1491873007.819304, -0.208923, +1.113281, -0.404663, +22.674561, +22.277832, -111.801147
1491873007.819577, 1491873007.822012, -0.208923, +1.113281, -0.404663, +28.030396, +40.786743, -112.884521
1491873007.822289, 1491873007.824717, -0.476440, +1.171692, -0.654968, +28.030396, +40.786743, -112.884521
1491873007.824992, 1491873007.827408, -0.476440, +1.171692, -0.654968, +24.017334, +37.506104, -111.190796
1491873007.827682, 1491873007.830112, -0.476440, +1.171692, -0.654968, +24.017334, +37.506104, -111.190796
1491873007.830380, 1491873007.832684, -0.476440, +1.406067, -0.075073, +10.299683, +17.974854, -110.290527
1491873007.832952, 1491873007.835248, -0.538696, +1.401489, -0.075073, +10.299683, +17.974854, -110.290527
1491873007.835513, 1491873007.837811, -0.538696, +1.401489, -0.075073, -0.228882, -0.106812, -110.519409
1491873007.838073, 1491873007.840383, -0.538696, +1.401489, -0.075073, -0.228882, -0.106812, -110.519409
1491873007.840754, 1491873007.843051, -0.538696, +1.035278, +0.021606, -1.113892, -9.368896, -106.399536
1491873007.843314, 1491873007.845614, -0.454468, +1.035278, +0.021606, -1.113892, -9.368896, -106.399536
1491873007.845875, 1491873007.848164, -0.454468, +1.035278, +0.021606, +2.807617, -17.852783, -100.082397
1491873007.848427, 1491873007.850866, -0.454468, +1.035278, +0.021606, +2.807617, -17.852783, -100.082397
1491873007.851137, 1491873007.853555, -0.266968, +0.913147, -0.368958, +3.494263, -25.711060, -92.132568
1491873007.853826, 1491873007.856236, -0.263306, +0.913147, -0.368958, +3.494263, -25.711060, -92.132568
1491873007.856507, 1491873007.858915, -0.263306, +0.913147, -0.368958, -0.686646, -28.274536, -85.357666
1491873007.859187, 1491873007.861602, -0.263306, +0.913147, -0.368958, -0.686646, -28.274536, -85.357666
1491873007.861874, 1491873007.864281, -0.344238, +1.053406, -0.212585, -5.187988, -32.073975, -79.238892
1491873007.864553, 1491873007.866969, -0.344238, +1.053406, -0.212585, -5.187988, -32.073975, -79.238892
1491873007.867240, 1491873007.869649, -0.344238, +1.053406, -0.212585, -8.392334, -37.078857, -73.730469
1491873007.869919, 1491873007.872337, -0.344238, +1.053406, -0.212585, -8.392334, -37.078857, -73.730469
1491873007.872607, 1491873007.875019, -0.340210, +1.040039, -0.103088, -9.597778, -40.359497, -66.009521
1491873007.875293, 1491873007.877695, -0.340210, +1.040039, -0.103088, -9.597778, -40.359497, -66.009521
1491873007.877968, 1491873007.880386, -0.340210, +1.040039, -0.103088, -7.003784, -39.764404, -59.661865
1491873007.880657, 1491873007.883227, -0.340210, +1.040039, -0.056213, -7.003784, -39.764404, -55.755615
1491873007.883492, 1491873007.885792, -0.138062, +0.991882, -0.047424, -4.074097, -35.491943, -54.763794
1491873007.886055, 1491873007.888355, -0.138062, +0.991882, -0.047424, -4.074097, -35.491943, -54.763794
1491873007.888617, 1491873007.891051, -0.138062, +0.991882, -0.047424, -1.327515, -31.082153, -51.361084
1491873007.891324, 1491873007.893715, -0.138062, +1.038757, -0.037354, -1.327515, -31.082153, -47.454834
1491873007.893985, 1491873007.896476, -0.048889, +1.048462, -0.037354, +0.061035, -27.862549, -48.446655
1491873007.896747, 1491873007.899136, -0.048889, +1.048462, -0.037354, +0.061035, -27.862549, -48.446655
1491873007.900589, 1491873007.902888, -0.048889, +1.048462, -0.037354, +2.273560, -23.986816, -47.302246
1491873007.903155, 1491873007.905448, +0.036621, +1.085632, -0.078918, +4.882812, -20.233154, -47.470093
1491873007.905712, 1491873007.908006, +0.036621, +1.085632, -0.078918, +4.882812, -20.233154, -47.470093
1491873007.908269, 1491873007.910569, +0.036621, +1.085632, -0.078918, +6.729126, -16.738892, -47.210693
1491873007.910832, 1491873007.913125, +0.036621, +1.085632, -0.078918, +6.729126, -16.738892, -47.210693
1491873007.913388, 1491873007.915685, +0.080750, +1.122803, -0.135498, +6.729126, -11.825562, -47.210693
1491873007.915951, 1491873007.918244, +0.080750, +1.122803, -0.135498, +7.537842, -11.825562, -47.210693
1491873007.918509, 1491873007.920851, +0.080750, +1.122803, -0.135498, +7.537842, -7.553101, -47.393799
1491873007.921113, 1491873007.923407, +0.080750, +1.122803, -0.135498, +6.866455, -7.553101, -47.393799
1491873007.923670, 1491873007.925962, -0.079285, +1.084167, -0.127258, +6.866455, -6.408691, -46.737671
1491873007.926223, 1491873007.928516, -0.079285, +1.084167, -0.127258, +6.378174, -6.408691, -46.737671
1491873007.928777, 1491873007.931075, -0.079285, +1.084167, -0.127258, +6.378174, -6.408691, -44.860840
1491873007.931337, 1491873007.933630, -0.079285, +1.084167, -0.174133, +6.500244, -7.522583, -44.860840
1491873007.933890, 1491873007.936182, -0.051086, +1.041138, -0.183838, +6.500244, -7.522583, -42.465210
1491873007.936444, 1491873007.938741, -0.051086, +1.041138, -0.183838, +6.851196, -10.162354, -42.465210
1491873007.939005, 1491873007.941385, -0.051086, +1.041138, -0.183838, +6.851196, -10.162354, -40.664673
1491873007.941649, 1491873007.943947, -0.051086, +1.041138, -0.324463, +6.958008, -12.069702, -40.664673
1491873007.944322, 1491873007.946615, -0.069397, +1.018616, -0.286011, +6.958008, -12.069702, -39.505005
1491873007.946879, 1491873007.949173, -0.069397, +1.018616, -0.286011, +6.088257, -14.373779, -39.505005
1491873007.949436, 1491873007.951809, -0.069397, +1.018616, -0.286011, +6.088257, -14.373779, -38.330078
1491873007.952072, 1491873007.954371, -0.069397, +0.971741, -0.367676, +5.096436, -18.096924, -38.330078
1491873007.954634, 1491873007.956927, -0.053284, +0.977783, -0.367676, +5.096436, -18.096924, -38.330078
1491873007.957193, 1491873007.959488, -0.053284, +0.977783, -0.367676, +4.913330, -20.874023, -36.407471
1491873007.959753, 1491873007.962263, -0.053284, +0.977783, -0.367676, +4.913330, -20.874023, -32.501221
1491873007.962536, 1491873007.964959, -0.053284, +0.959839, -0.424438, +4.638672, -22.109985, -34.744263
1491873007.965229, 1491873007.967648, -0.048157, +0.959839, -0.424438, +4.638672, -22.109985, -33.889771
1491873007.967919, 1491873007.970346, -0.048157, +0.959839, -0.424438, +3.082275, -22.613525, -33.889771
1491873007.970616, 1491873007.973018, -0.048157, +0.959839, -0.424438, +3.082275, -22.613525, -32.531738
1491873007.973290, 1491873007.975699, -0.112793, +0.947571, -0.397888, +0.762939, -22.903442, -32.531738
1491873007.975969, 1491873007.978372, -0.112793, +0.947571, -0.397888, +0.762939, -26.809692, -30.792236
1491873007.978641, 1491873007.981093, -0.112793, +0.947571, -0.397888, -0.137329, -23.986816, -30.792236
1491873007.981363, 1491873007.983766, -0.112793, +0.947571, -0.397888, -0.137329, -23.986816, -30.090332
1491873007.984037, 1491873007.986443, -0.043945, +0.957458, -0.385254, -1.144409, -24.307251, -30.090332
1491873007.986714, 1491873007.989120, -0.043945, +0.957458, -0.385254, -1.144409, -24.169922, -29.998779
1491873007.989391, 1491873007.991815, -0.043945, +0.957458, -0.385254, -1.708984, -24.169922, -29.998779
1491873007.992086, 1491873007.994505, -0.043945, +0.957458, -0.385254, -1.708984, -23.223877, -30.624390
1491873007.994776, 1491873007.997194, +0.019226, +0.997192, -0.344788, -2.883911, -23.223877, -30.624390
1491873007.997465, 1491873007.999884, +0.019226, +0.997192, -0.344788, -2.883911, -21.591187, -31.555176
1491873008.000166, 1491873008.002594, +0.019226, +0.997192, -0.344788, -3.906250, -21.591187, -31.555176
1491873008.002867, 1491873008.005290, +0.019226, +0.997192, -0.278137, -3.768921, -20.355225, -32.043457
1491873008.005562, 1491873008.007988, -0.014648, +1.030151, -0.278137, -3.768921, -20.355225, -32.043457
1491873008.008258, 1491873008.010698, -0.014648, +1.030151, -0.278137, -3.173828, -19.546509, -33.325195
1491873008.010970, 1491873008.013389, -0.014648, +1.030151, -0.278137, -3.173828, -19.546509, -33.325195
1491873008.013659, 1491873008.016147, -0.019226, +1.045532, -0.243896, -3.402710, -18.371582, -34.317017
1491873008.016421, 1491873008.018848, -0.019226, +1.045532, -0.243896, -3.402710, -18.371582, -34.317017
1491873008.019119, 1491873008.021554, -0.019226, +1.045532, -0.243896, -2.838135, -17.303467, -34.912109
1491873008.021825, 1491873008.024247, -0.019226, +1.045532, -0.243896, -2.838135, -17.303467, -34.912109
1491873008.024519, 1491873008.026939, -0.077454, +1.033813, -0.214050, -2.746582, -16.647339, -35.354614
1491873008.027209, 1491873008.029634, -0.077454, +1.033813, -0.214050, -2.746582, -16.647339, -35.354614
1491873008.029904, 1491873008.032221, -0.077454, +1.033813, -0.214050, -2.166748, -16.174316, -35.598755
1491873008.032485, 1491873008.034782, -0.077454, +1.033813, -0.214050, -2.166748, -16.174316, -35.598755
1491873008.035045, 1491873008.037346, -0.093933, +1.000854, -0.189514, -1.434326, -15.731812, -36.209106
1491873008.037609, 1491873008.039902, -0.093933, +1.000854, -0.189514, -1.434326, -15.731812, -36.209106
1491873008.040174, 1491873008.042597, -0.093933, +1.000854, -0.189514, -0.381470, -14.541626, -36.758423
1491873008.042870, 1491873008.045293, -0.093933, +1.000854, -0.189514, -0.381470, -14.541626, -36.758423
1491873008.045566, 1491873008.047985, -0.114807, +1.006714, -0.192261, -0.823975, -12.359619, -37.017822
1491873008.048362, 1491873008.050774, -0.114807, +1.006714, -0.192261, -0.823975, -12.359619, -37.017822
1491873008.051038, 1491873008.053335, -0.114807, +1.006714, -0.192261, -2.471924, -11.291504, -37.170410
1491873008.053600, 1491873008.055897, -0.114807, +1.006714, -0.175598, -2.471924, -11.291504, -37.170410
1491873008.056162, 1491873008.058466, -0.152710, +1.022095, -0.175598, -2.792358, -12.466431, -36.804199
1491873008.058729, 1491873008.061173, -0.152710, +1.022095, -0.175598, -2.792358, -12.466431, -36.804199
1491873008.061438, 1491873008.063736, -0.152710, +1.022095, -0.175598, -2.990723, -13.031006, -36.880493
1491873008.063999, 1491873008.066296, -0.152710, +0.992798, -0.269348, -2.990723, -13.031006, -36.880493
1491873008.066558, 1491873008.068850, -0.101990, +0.992798, -0.269348, -3.768921, -13.702393, -36.926270
1491873008.069115, 1491873008.071558, -0.101990, +0.992798, -0.269348, -3.768921, -13.702393, -36.926270
1491873008.071823, 1491873008.074121, -0.101990, +0.992798, -0.269348, -5.111694, -14.450073, -37.460327
1491873008.074384, 1491873008.076679, -0.055115, +1.000854, -0.314392, -5.111694, -14.450073, -37.460327
1491873008.076942, 1491873008.079246, -0.093201, +1.000854, -0.314392, -5.523682, -15.045166, -38.497925
1491873008.079509, 1491873008.081968, -0.093201, +1.000854, -0.314392, -5.523682, -15.045166, -38.497925
1491873008.082239, 1491873008.084660, -0.093201, +1.000854, -0.314392, -5.386353, -15.060425, -39.276123
1491873008.084932, 1491873008.087351, -0.113159, +1.003601, -0.300842, -5.386353, -15.060425, -39.276123
1491873008.087623, 1491873008.090091, -0.113159, +1.003601, -0.300842, -5.935669, -15.670776, -40.145874
1491873008.090357, 1491873008.092644, -0.113159, +1.003601, -0.300842, -5.935669, -15.670776, -40.145874
1491873008.092909, 1491873008.095202, -0.113159, +1.003601, -0.300842, -6.408691, -15.960693, -40.679932
1491873008.095466, 1491873008.097761, -0.118286, +1.010742, -0.261841, -6.408691, -15.960693, -40.679932
1491873008.098024, 1491873008.100480, -0.118286, +1.010742, -0.261841, -6.820679, -16.220093, -42.022705
1491873008.100751, 1491873008.103138, -0.118286, +1.010742, -0.261841, -6.820679, -16.220093, -42.022705
1491873008.103408, 1491873008.105887, -0.118286, +1.010742, -0.261841, -6.637573, -15.899658, -43.014526
1491873008.106161, 1491873008.108550, -0.095032, +1.001587, -0.246277, -6.637573, -15.899658, -43.014526
1491873008.108820, 1491873008.111499, -0.095032, +1.001587, -0.246277, -6.332397, -15.411377, -44.509888
1491873008.111774, 1491873008.114199, -0.095032, +1.001587, -0.246277, -6.332397, -15.411377, -44.509888
1491873008.114471, 1491873008.116895, -0.095032, +0.954712, -0.242065, -6.134033, -14.846802, -46.493530
1491873008.117165, 1491873008.119584, -0.061340, +0.980896, -0.242065, -6.134033, -14.846802, -46.493530
1491873008.119856, 1491873008.122201, -0.061340, +0.980896, -0.242065, -5.310059, -13.809204, -49.423218
1491873008.122467, 1491873008.124758, -0.061340, +0.980896, -0.242065, -5.310059, -13.809204, -49.423218
1491873008.125022, 1491873008.127321, +0.032410, +0.939880, -0.324646, -3.921509, -11.108398, -51.834106
1491873008.127587, 1491873008.129882, +0.005127, +0.939880, -0.324646, -3.921509, -11.108398, -51.834106
1491873008.130154, 1491873008.132576, +0.005127, +0.939880, -0.324646, -3.433228, -7.629395, -55.358887
1491873008.132845, 1491873008.135269, +0.005127, +0.939880, -0.324646, -3.433228, -7.629395, -55.358887
1491873008.135537, 1491873008.137956, +0.026733, +0.865723, -0.460327, -3.692627, -3.082275, -58.761597
1491873008.138224, 1491873008.140661, +0.026733, +0.865723, -0.460327, -3.692627, -3.082275, -58.761597
1491873008.140923, 1491873008.143225, +0.026733, +0.865723, -0.460327, -4.104614, +1.495361, -61.721802
1491873008.143487, 1491873008.145782, +0.026733, +0.865723, -0.460327, -4.104614, +1.495361, -61.721802
1491873008.146044, 1491873008.148340, -0.028931, +0.768311, -0.489990, -4.516602, +6.652832, -65.383911
1491873008.148601, 1491873008.150901, -0.028931, +0.768311, -0.489990, -4.516602, +6.652832, -65.383911
1491873008.151162, 1491873008.153455, -0.028931, +0.768311, -0.489990, -7.980347, +12.985229, -65.811157
1491873008.153832, 1491873008.156135, -0.028931, +0.768311, -0.489990, -7.980347, +12.985229, -65.811157
1491873008.156400, 1491873008.158696, -0.508850, +0.947021, -0.284180, -15.319824, +14.846802, -60.256958
1491873008.158962, 1491873008.161386, -0.508850, +0.947021, -0.284180, -15.319824, +14.846802, -60.256958
1491873008.161652, 1491873008.163948, -0.508850, +0.947021, -0.284180, -19.821167, +1.449585, -58.181763
1491873008.164212, 1491873008.166507, -0.508850, +0.947021, -0.284180, -19.821167, +1.449585, -58.181763
1491873008.166772, 1491873008.169067, -0.462891, +1.166748, -0.121582, -20.370483, -18.051147, -58.563232
1491873008.169333, 1491873008.171840, -0.462891, +1.166748, -0.121582, -20.370483, -18.051147, -58.563232
1491873008.172116, 1491873008.174535, -0.462891, +1.166748, -0.121582, -20.294189, -28.900146, -58.746338
1491873008.174809, 1491873008.177229, -0.462891, +1.166748, -0.215332, -20.294189, -28.900146, -58.746338
1491873008.177501, 1491873008.179917, -0.096680, +1.065125, -0.210754, -20.935059, -28.564453, -60.455322
1491873008.180201, 1491873008.182622, -0.096680, +1.065125, -0.210754, -20.935059, -28.564453, -60.455322
1491873008.182896, 1491873008.185320, -0.096680, +1.065125, -0.210754, -21.606445, -23.040771, -62.576294
1491873008.185594, 1491873008.188013, -0.096680, +1.113464, -0.025452, -21.606445, -23.040771, -62.576294
1491873008.188288, 1491873008.190724, -0.245911, +1.113464, -0.025452, -22.308350, -21.057129, -63.674927
1491873008.190998, 1491873008.193418, -0.245911, +1.113464, -0.025452, -22.308350, -21.057129, -63.674927
1491873008.193692, 1491873008.196113, -0.245911, +1.113464, -0.025452, -22.384644, -24.566650, -64.163208
1491873008.196387, 1491873008.198810, -0.352478, +1.166748, -0.006042, -22.384644, -24.566650, -64.163208
1491873008.199084, 1491873008.201529, -0.352478, +1.166748, -0.006042, -21.942139, -30.242920, -65.093994
1491873008.201806, 1491873008.204228, -0.352478, +1.166748, -0.006042, -21.942139, -30.242920, -65.536499
1491873008.204503, 1491873008.206928, -0.352478, +1.166748, -0.006042, -22.201538, -33.569336, -65.536499
1491873008.207202, 1491873008.209629, -0.245728, +1.106689, -0.092651, -22.201538, -33.569336, -65.170288
1491873008.209904, 1491873008.212301, -0.245728, +1.106689, -0.092651, -22.430420, -32.409668, -65.170288
1491873008.212569, 1491873008.214868, -0.245728, +1.106689, -0.092651, -22.430420, -32.409668, -66.345215
1491873008.215136, 1491873008.217428, -0.245728, +1.106689, -0.092651, -21.728516, -29.998779, -66.345215
1491873008.217694, 1491873008.219991, -0.217346, +1.070435, -0.112793, -21.728516, -29.998779, -67.535400
1491873008.220311, 1491873008.222606, -0.217346, +1.070435, -0.112793, -21.560669, -27.099609, -67.535400
1491873008.222875, 1491873008.225165, -0.217346, +1.070435, -0.112793, -21.560669, -27.099609, -67.535400
1491873008.225433, 1491873008.227750, -0.217346, +1.070435, -0.112793, -20.614624, -25.222778, -68.054199
1491873008.228020, 1491873008.230329, -0.291321, +1.093506, -0.146301, -20.614624, -25.222778, -68.054199
1491873008.230601, 1491873008.232989, -0.291321, +1.093506, -0.146301, -19.821167, -24.749756, -69.168091
1491873008.233260, 1491873008.235639, -0.291321, +1.093506, -0.146301, -19.821167, -24.749756, -69.168091
1491873008.235910, 1491873008.238301, -0.291321, +1.093506, -0.221375, -19.653320, -24.002075, -69.885254
1491873008.238571, 1491873008.240979, -0.318054, +1.082520, -0.221375, -19.653320, -24.002075, -69.885254
1491873008.241253, 1491873008.243667, -0.318054, +1.082520, -0.221375, -19.485474, -23.666382, -70.205688
1491873008.243939, 1491873008.246358, -0.318054, +1.082520, -0.221375, -19.485474, -23.666382, -70.098877
1491873008.246632, 1491873008.249036, -0.318054, +1.068787, -0.329590, -18.661499, -24.200439, -70.098877
1491873008.249310, 1491873008.251729, -0.373901, +1.068787, -0.329590, -18.661499, -24.200439, -69.961548
1491873008.252003, 1491873008.254414, -0.373901, +1.068787, -0.329590, -17.440796, -25.955200, -69.961548
1491873008.254805, 1491873008.257217, -0.373901, +1.068787, -0.329590, -17.440796, -25.955200, -69.107056
1491873008.257492, 1491873008.259906, -0.431030, +1.163818, -0.249390, -17.776489, -27.252197, -69.107056
1491873008.260190, 1491873008.262638, -0.431030, +1.163818, -0.249390, -17.776489, -29.998779, -67.642212
1491873008.262926, 1491873008.267322, -0.431030, +1.163818, -0.249390, -17.822266, -29.998779, -65.841675
1491873008.267601, 1491873008.269906, -0.332703, +1.241272, -0.167175, -18.020630, -33.905029, -65.841675
1491873008.270208, 1491873008.272497, -0.332703, +1.241272, -0.167175, -18.020630, -33.905029, -65.841675
1491873008.272762, 1491873008.275061, -0.332703, +1.241272, -0.167175, -18.875122, -34.683228, -65.093994
1491873008.275327, 1491873008.277628, -0.332703, +1.241272, -0.167175, -18.875122, -34.683228, -65.093994
1491873008.277893, 1491873008.280317, -0.274109, +1.249695, -0.102905, -19.195557, -33.386230, -65.444946
1491873008.280586, 1491873008.282887, -0.274109, +1.249695, -0.102905, -19.195557, -33.386230, -65.444946
1491873008.283155, 1491873008.285449, -0.274109, +1.249695, -0.102905, -19.638062, -32.516479, -66.589355
