timestamp_before, timestamp_after, accel_x, accel_y, accel_z, gyro_x, gyro_y, gyro_z
1491872958.109118, 1491872958.115458, -5.998535, +1.057983, -0.156372, -24.612427, +9.674072, -8.804321
1491872958.115816, 1491872958.118383, -0.134216, +1.040222, -0.156372, -24.612427, +9.674072, -1.754761
1491872958.118663, 1491872958.121058, -0.134216, +1.040222, -0.156372, -4.302979, -35.644531, -1.754761
1491872958.121407, 1491872958.123712, -0.134216, +1.040222, -0.156372, -4.302979, -35.644531, -1.541138
1491872958.123975, 1491872958.126268, -0.125244, +0.999023, -0.117737, -3.906250, -35.385132, -1.541138
1491872958.126531, 1491872958.128828, -0.125244, +0.999023, -0.117737, -3.906250, -35.385132, -1.800537
1491872958.129090, 1491872958.131628, -0.125244, +0.999023, -0.117737, -3.707886, -35.614014, -1.800537
1491872958.131892, 1491872958.134184, -0.125244, +0.999023, -0.117737, -3.707886, -35.614014, -1.770020
1491872958.134448, 1491872958.136737, -0.124512, +1.020813, -0.130554, -3.616333, -35.659790, -1.770020
1491872958.136999, 1491872958.139292, -0.124512, +1.020813, -0.130554, -3.616333, -35.659790, -1.663208
1491872958.139553, 1491872958.141859, -0.124512, +1.020813, -0.130554, -3.890991, -35.491943, -1.663208
1491872958.142121, 1491872958.144415, -0.124512, +1.020813, -0.130554, -3.890991, -35.491943, -1.785278
1491872958.144677, 1491872958.147129, -0.121582, +1.022827, -0.130554, -4.104614, -35.446167, -1.785278
1491872958.147390, 1491872958.149691, -0.121582, +1.022827, -0.130554, -4.104614, -35.476685, -1.724243
1491872958.149952, 1491872958.152505, -0.121582, +1.022827, -0.130554, -3.814697, -35.476685, -1.724243
1491872958.152765, 1491872958.155066, -0.121582, +1.022827, -0.130371, -3.723145, -35.675049, -1.907349
1491872958.155327, 1491872958.157624, -0.123962, +1.026306, -0.130371, -3.723145, -35.675049, -1.907349
1491872958.157885, 1491872958.160185, -0.123962, +1.026306, -0.130371, -7.629395, -35.598755, -1.708984
1491872958.160446, 1491872958.162751, -0.123962, +1.026306, -0.130371, -4.119873, -35.598755, -1.708984
1491872958.163013, 1491872958.165302, -0.123962, +1.026306, -0.136780, -4.119873, +331.619263, +26.718140
1491872958.165566, 1491872958.167856, -0.124146, +1.022644, -0.136780, +64.971924, +329.742432, +26.718140
1491872958.168122, 1491872958.170501, -0.124146, +1.022644, -0.136780, +64.971924, +329.742432, -27.923584
1491872958.170778, 1491872958.173200, -0.124146, +1.022644, -0.136780, -67.825317, -358.383179, -27.923584
1491872958.173475, 1491872958.175904, -0.124146, +1.018982, -0.114624, -67.825317, -33.218384, -1.464844
1491872958.176175, 1491872958.178595, -0.111145, +1.018982, -0.114624, -3.402710, -33.218384, -1.464844
1491872958.178863, 1491872958.181231, -0.111145, +1.018982, -0.114624, -4.028320, -35.659790, -1.586914
1491872958.181495, 1491872958.183795, -0.111145, +1.018982, -0.114624, -4.028320, -35.659790, -1.586914
1491872958.184056, 1491872958.186354, -0.121582, +1.031799, -0.146851, -4.104614, -35.629272, -1.617432
1491872958.186615, 1491872958.188917, -0.121582, +1.031799, -0.146851, -4.104614, -35.629272, -1.617432
1491872958.189177, 1491872958.191592, -0.121582, +1.031799, -0.146851, -4.180908, -35.461426, -1.724243
1491872958.191854, 1491872958.194148, -0.121582, +1.031799, -0.146851, -4.180908, -35.461426, -1.724243
1491872958.194409, 1491872958.196708, -0.122864, +1.029602, -0.145569, -3.784180, -35.507202, -1.876831
1491872958.196969, 1491872958.199261, -0.122864, +1.029602, -0.145569, -3.784180, -35.507202, -1.876831
1491872958.199523, 1491872958.201944, -0.122864, +1.029602, -0.145569, -4.302979, -35.736084, -1.403809
1491872958.202206, 1491872958.204512, -0.122864, +1.029602, -0.145569, -4.302979, -35.736084, -1.403809
1491872958.204773, 1491872958.207073, -0.129089, +1.029785, -0.147217, -4.058838, -35.675049, -1.556396
1491872958.207335, 1491872958.209631, -0.129089, +1.029785, -0.147217, -4.058838, -35.675049, -1.556396
1491872958.209892, 1491872958.212336, -0.129089, +1.029785, -0.147217, -4.104614, -35.675049, -1.968384
1491872958.212601, 1491872958.215009, -0.129089, +1.029785, -0.147217, -4.104614, -35.675049, -1.968384
1491872958.215434, 1491872958.217848, -0.125061, +1.028870, -0.155090, -4.318237, -35.720825, -1.770020
1491872958.218116, 1491872958.220528, -0.125061, +1.028870, -0.155090, -4.318237, -35.720825, -1.770020
1491872958.220798, 1491872958.223199, -0.125061, +1.028870, -0.155090, -3.799438, -36.010742, -1.846313
1491872958.223466, 1491872958.225878, -0.125061, +1.028870, -0.155090, -3.799438, -36.010742, -1.846313
1491872958.226142, 1491872958.228547, -0.122681, +1.021362, -0.143005, -3.097534, -35.537720, -1.724243
1491872958.228814, 1491872958.231216, -0.122681, +1.021362, -0.143005, -3.097534, -35.537720, -1.724243
1491872958.231481, 1491872958.233873, -0.122681, +1.021362, -0.143005, -3.601074, -34.286499, -2.334595
1491872958.234140, 1491872958.236521, -0.122681, +1.021362, -0.138977, -3.601074, -34.286499, -2.334595
1491872958.236821, 1491872958.239124, -0.125244, +1.025208, -0.138977, -3.540039, -33.905029, -2.044678
1491872958.239386, 1491872958.242083, -0.125244, +1.025208, -0.138977, -3.540039, -33.905029, -2.044678
1491872958.242349, 1491872958.244731, -0.125244, +1.025208, -0.138977, -3.585815, -33.493042, -1.693726
1491872958.244996, 1491872958.247504, -0.127625, +1.026489, -0.153259, -3.585815, -33.493042, -1.693726
1491872958.247771, 1491872958.250799, -0.127625, +1.026489, -0.153259, -3.692627, -33.401489, -1.632690
1491872958.251063, 1491872958.253359, -0.127625, +1.026489, -0.153259, -3.692627, -33.401489, -1.647949
1491872958.253620, 1491872958.255920, -0.127625, +1.026489, -0.153259, -3.631592, -33.172607, -1.647949
1491872958.256180, 1491872958.258474, -0.117004, +1.026306, -0.145752, -3.631592, -33.172607, -1.296997
1491872958.258735, 1491872958.261150, -0.117004, +1.026306, -0.145752, -3.616333, -32.989502, -1.296997
1491872958.261418, 1491872958.263838, -0.117004, +1.026306, -0.145752, -3.616333, -32.989502, -1.144409
1491872958.264105, 1491872958.266531, -0.117004, +1.026306, -0.145752, -3.738403, -32.516479, -1.144409
1491872958.266802, 1491872958.269226, -0.116638, +1.031067, -0.154175, -3.738403, -32.516479, -1.159668
1491872958.269494, 1491872958.271921, -0.116638, +1.031067, -0.154175, -4.028320, -32.180786, -1.159668
1491872958.272190, 1491872958.274614, -0.116638, +1.031067, -0.154175, -4.028320, -32.180786, -1.022339
1491872958.274881, 1491872958.277299, -0.116638, +1.030884, -0.149780, -4.180908, -31.707764, -1.022339
1491872958.277568, 1491872958.279994, -0.130188, +1.030884, -0.149780, -4.180908, -31.341553, -1.037598
1491872958.280699, 1491872958.283003, -0.130188, +1.030884, -0.149780, -4.364014, -31.341553, -1.037598
1491872958.283265, 1491872958.285563, -0.130188, +1.030884, -0.149780, -4.638672, -30.578613, -0.823975
1491872958.285824, 1491872958.288119, -0.133484, +1.030701, -0.133484, -4.638672, -30.578613, -0.823975
1491872958.288379, 1491872958.290738, -0.133484, +1.030701, -0.133484, -4.638672, -29.907227, -0.350952
1491872958.291007, 1491872958.293432, -0.133484, +1.030701, -0.133484, -4.913330, -29.907227, -0.350952
1491872958.293701, 1491872958.296121, -0.133484, +1.030701, -0.133484, -4.776001, -28.884888, -0.427246
1491872958.296392, 1491872958.298819, -0.131104, +1.023560, -0.153625, -4.776001, -28.884888, -0.427246
1491872958.299088, 1491872958.301451, -0.131104, +1.023560, -0.153625, -4.928589, -28.549194, -0.030518
1491872958.301713, 1491872958.304013, -0.131104, +1.023560, -0.153625, -4.928589, -28.549194, -0.030518
1491872958.304274, 1491872958.306570, -0.131104, +1.023560, -0.153625, -4.959106, -27.587891, -0.137329
1491872958.306830, 1491872958.309489, -0.140442, +1.022461, -0.156738, -4.959106, -27.587891, -0.137329
1491872958.309752, 1491872958.312165, -0.140442, +1.022461, -0.156738, -5.126953, -26.657104, +0.366211
1491872958.312551, 1491872958.315073, -0.140442, +1.022461, -0.156738, -5.126953, -26.657104, +0.366211
1491872958.315343, 1491872958.317765, -0.140442, +1.022461, -0.134033, -4.760742, -25.344849, +1.113892
1491872958.318034, 1491872958.320491, -0.132202, +1.024841, -0.134033, -4.760742, -25.344849, +1.113892
1491872958.320884, 1491872958.323185, -0.132202, +1.024841, -0.134033, -5.233765, -24.551392, +1.327515
1491872958.323446, 1491872958.325746, -0.132202, +1.024841, -0.134033, -5.233765, -24.551392, +1.327515
1491872958.326006, 1491872958.328301, -0.132202, +1.020813, -0.188232, -5.661011, -23.101807, +1.815796
1491872958.328561, 1491872958.330926, -0.133118, +1.020813, -0.188232, -5.661011, -23.101807, +1.815796
1491872958.331193, 1491872958.333575, -0.133118, +1.020813, -0.188232, -6.179810, -21.530151, +2.624512
1491872958.333841, 1491872958.336220, -0.133118, +1.020813, -0.188232, -6.179810, -21.530151, +2.624512
1491872958.336485, 1491872958.338870, -0.134216, +1.026855, -0.154724, -6.790161, -19.638062, +3.463745
1491872958.339136, 1491872958.341721, -0.134216, +1.026855, -0.154724, -6.790161, -19.638062, +3.463745
1491872958.341987, 1491872958.344408, -0.134216, +1.026855, -0.154724, -7.308960, -18.035889, +4.135132
1491872958.344678, 1491872958.347095, -0.134216, +1.026855, -0.154724, -7.308960, -18.035889, +4.135132
1491872958.347363, 1491872958.349783, -0.128723, +1.028870, -0.160034, -6.622314, -15.441895, +4.211426
1491872958.350092, 1491872958.352393, -0.128723, +1.028870, -0.160034, -6.622314, -15.441895, +4.211426
1491872958.352653, 1491872958.354946, -0.128723, +1.028870, -0.160034, -5.905151, -12.985229, +3.997803
1491872958.355206, 1491872958.357496, -0.128723, +1.028870, -0.160034, -5.905151, -12.985229, +3.997803
1491872958.357756, 1491872958.360225, -0.120667, +1.022095, -0.134766, -5.523682, -10.650635, +4.135132
1491872958.360487, 1491872958.362786, -0.120667, +1.022095, -0.134766, -5.523682, -10.650635, +4.135132
1491872958.363047, 1491872958.365354, -0.120667, +1.022095, -0.134766, -5.050659, -8.361816, +4.776001
1491872958.365612, 1491872958.367908, -0.120667, +1.022095, -0.228516, -5.050659, -8.361816, +4.776001
1491872958.368167, 1491872958.370628, -0.131836, +1.018066, -0.190979, -3.417969, -4.333496, +3.982544
1491872958.370893, 1491872958.373323, -0.131836, +1.018066, -0.190979, -3.417969, -4.333496, +3.982544
1491872958.373586, 1491872958.376004, -0.131836, +1.018066, -0.190979, -1.281738, -0.274658, +2.426147
1491872958.376268, 1491872958.378685, -0.131836, +1.021179, -0.145386, -1.281738, -0.274658, +2.426147
1491872958.378950, 1491872958.381390, -0.121582, +1.021179, -0.145386, -0.030518, +1.602173, +2.059937
1491872958.381657, 1491872958.384077, -0.121582, +1.021179, -0.145386, -0.030518, +1.602173, +2.059937
1491872958.384341, 1491872958.386769, -0.121582, +1.021179, -0.145386, +0.045776, +1.785278, +1.602173
1491872958.387035, 1491872958.389456, -0.127625, +1.026306, -0.156006, +0.045776, +1.785278, +1.602173
1491872958.389720, 1491872958.392146, -0.127625, +1.026306, -0.156006, +0.137329, +1.571655, +1.708984
1491872958.392409, 1491872958.394829, -0.127625, +1.026306, -0.156006, +0.137329, +1.571655, +1.708984
1491872958.395094, 1491872958.397512, -0.127625, +1.026306, -0.156006, +0.244141, +1.663208, +2.182007
1491872958.397777, 1491872958.400200, -0.129639, +1.027222, -0.144287, +0.244141, +1.663208, +2.182007
1491872958.400456, 1491872958.402754, -0.129639, +1.027222, -0.144287, +0.228882, +1.510620, +1.892090
1491872958.403010, 1491872958.405305, -0.129639, +1.027222, -0.144287, +0.228882, +1.510620, +1.892090
1491872958.405562, 1491872958.407862, -0.129639, +1.027222, -0.144287, +0.610352, +1.708984, +1.876831
1491872958.408117, 1491872958.410526, -0.134766, +1.026489, -0.158569, +0.610352, +1.708984, +1.876831
1491872958.410784, 1491872958.413076, -0.134766, +1.026489, -0.158569, +1.144409, +1.907349, +1.998901
1491872958.413330, 1491872958.415627, -0.134766, +1.026489, -0.158569, +1.144409, +1.907349, +1.998901
1491872958.415904, 1491872958.418194, -0.134766, +1.026489, -0.158569, +1.144409, +2.578735, +1.892090
1491872958.418450, 1491872958.420791, -0.135681, +1.028503, -0.157104, +1.144409, +2.578735, +1.892090
1491872958.421057, 1491872958.423446, -0.135681, +1.028503, -0.157104, +0.579834, +2.334595, +1.953125
1491872958.423709, 1491872958.426212, -0.135681, +1.028503, -0.157104, +0.579834, +2.334595, +1.953125
1491872958.426645, 1491872958.429059, -0.135681, +1.028503, -0.171021, +0.946045, +2.548218, +1.770020
1491872958.429324, 1491872958.431726, -0.124146, +1.023010, -0.171021, +0.946045, +2.548218, +1.770020
1491872958.431990, 1491872958.434374, -0.124146, +1.023010, -0.171021, +1.007080, +2.868652, +1.983643
1491872958.434639, 1491872958.437068, -0.124146, +1.023010, -0.171021, +1.007080, +2.868652, +1.983643
1491872958.437333, 1491872958.439752, -0.124146, +1.021545, -0.157654, +1.037598, +3.509521, +2.395630
1491872958.440016, 1491872958.442434, -0.141541, +1.021545, -0.157654, +1.037598, +3.509521, +2.395630
1491872958.442697, 1491872958.445119, -0.141541, +1.021545, -0.157654, +1.449585, +5.172729, +2.395630
1491872958.445382, 1491872958.447800, -0.141541, +1.021545, -0.157654, +1.449585, +5.172729, +2.685547
1491872958.448063, 1491872958.450501, -0.135681, +1.022095, -0.164429, +1.708984, +7.598877, +2.685547
1491872958.450765, 1491872958.453187, -0.135681, +1.022095, -0.164429, +1.708984, +7.598877, +3.082275
1491872958.453451, 1491872958.455867, -0.135681, +1.022095, -0.164429, +2.044678, +8.911133, +3.082275
1491872958.456131, 1491872958.458552, -0.135681, +1.022095, -0.164429, +2.044678, +8.911133, +3.387451
1491872958.458815, 1491872958.461215, -0.129456, +1.007263, -0.184387, +2.929688, +10.910034, +3.387451
1491872958.461475, 1491872958.463768, -0.129456, +1.007263, -0.184387, +2.929688, +10.910034, +4.135132
1491872958.464027, 1491872958.466319, -0.129456, +1.007263, -0.184387, +4.455566, +16.036987, +4.135132
1491872958.466579, 1491872958.468875, -0.129456, +1.007263, -0.184387, +4.455566, +16.036987, +4.638672
1491872958.469135, 1491872958.471566, -0.146118, +1.002686, -0.219727, +6.439209, +27.664185, +4.638672
1491872958.471825, 1491872958.474121, -0.146118, +1.002686, -0.219727, +6.439209, +27.664185, +5.584717
1491872958.474380, 1491872958.476674, -0.146118, +1.002686, -0.219727, +7.110596, +41.824341, +5.584717
1491872958.476934, 1491872958.479235, -0.146118, +1.002686, -0.219727, +7.110596, +41.824341, +5.584717
1491872958.479495, 1491872958.482022, -0.052917, +1.009460, -0.101257, +5.279541, +48.309326, +6.347656
1491872958.482290, 1491872958.486961, -0.052917, +1.009460, -0.101257, +4.211426, +46.600342, +5.828857
1491872958.487239, 1491872958.489580, -0.052917, +1.009460, -0.007507, +4.211426, +46.600342, +5.828857
1491872958.489847, 1491872958.495526, -0.085876, +1.039490, -0.030579, +1.510620, +38.787842, +3.555298
1491872958.495801, 1491872958.501284, -0.085876, +1.039490, -0.105103, +0.686646, +26.748657, +1.998901
1491872958.501563, 1491872958.504208, -0.149963, +1.052124, -0.105103, +0.137329, +26.748657, +1.998901
1491872958.504474, 1491872958.506767, -0.149963, +1.052124, -0.105103, -0.076294, +25.756836, +2.059937
1491872958.507030, 1491872958.509342, -0.149963, +1.052124, -0.105103, -0.076294, +25.756836, +2.059937
1491872958.509606, 1491872958.511906, -0.099792, +1.034912, -0.147034, -0.106812, +26.290894, +1.708984
1491872958.512170, 1491872958.514541, -0.099792, +1.034912, -0.147034, -0.106812, +26.290894, +1.708984
1491872958.514805, 1491872958.517100, -0.099792, +1.034912, -0.147034, -0.152588, +24.520874, +0.808716
1491872958.517364, 1491872958.519732, -0.099792, +1.034912, -0.147034, -0.152588, +24.520874, +0.808716
1491872958.519994, 1491872958.522434, -0.125061, +1.043518, -0.139709, -0.778198, +22.888184, +0.518799
1491872958.522697, 1491872958.524992, -0.125061, +1.043518, -0.139709, -0.778198, +22.888184, +0.518799
1491872958.525255, 1491872958.527652, -0.125061, +1.043518, -0.139709, -1.068115, +20.904541, +0.274658
1491872958.527950, 1491872958.530468, -0.125061, +1.043518, -0.186584, -1.068115, +20.904541, +0.274658
1491872958.530743, 1491872958.533045, -0.154541, +1.029419, -0.145386, -1.281738, +19.348145, +0.686646
1491872958.533308, 1491872958.535595, -0.154541, +1.029419, -0.145386, -1.281738, +19.348145, +0.686646
1491872958.535857, 1491872958.538151, -0.154541, +1.029419, -0.145386, -1.464844, +17.196655, +0.946045
1491872958.538543, 1491872958.540942, -0.154541, +1.028687, -0.138428, -1.464844, +17.196655, +0.946045
1491872958.541204, 1491872958.543495, -0.173767, +1.028687, -0.138428, -2.212524, +14.572144, +1.556396
1491872958.543753, 1491872958.546040, -0.173767, +1.028687, -0.138428, -2.212524, +14.572144, +1.556396
1491872958.546302, 1491872958.548597, -0.173767, +1.028687, -0.138428, -3.021240, +11.657715, +2.136230
1491872958.548858, 1491872958.551158, -0.173767, +1.010010, -0.143738, -3.021240, +11.657715, +2.136230
1491872958.551420, 1491872958.553708, -0.191711, +1.010010, -0.143738, -3.021240, +9.109497, +2.471924
1491872958.553966, 1491872958.556255, -0.191711, +1.010010, -0.143738, -2.685547, +9.109497, +2.471924
1491872958.556512, 1491872958.558798, -0.191711, +1.010010, -0.143738, -2.685547, +7.766724, +2.761841
1491872958.559052, 1491872958.561355, -0.191711, +1.005066, -0.156372, -2.822876, +7.766724, +2.761841
1491872958.561610, 1491872958.563907, -0.169922, +1.005066, -0.156372, -2.822876, +7.766724, +3.601074
1491872958.564163, 1491872958.566458, -0.169922, +1.005066, -0.156372, -3.204346, +6.027222, +3.601074
1491872958.566712, 1491872958.569009, -0.169922, +1.005066, -0.156372, -3.204346, +6.027222, +3.997803
1491872958.569266, 1491872958.571619, -0.169922, +1.038025, -0.150879, -3.295898, +3.845215, +3.997803
1491872958.571874, 1491872958.574169, -0.183472, +1.038025, -0.150879, -3.295898, +3.845215, +4.867554
1491872958.574423, 1491872958.576721, -0.183472, +1.038025, -0.150879, -3.356934, +2.334595, +4.867554
1491872958.576976, 1491872958.579271, -0.183472, +1.038025, -0.150879, -3.356934, +2.334595, +5.691528
1491872958.579526, 1491872958.581962, -0.136597, +1.040771, -0.167908, -3.234863, +1.220703, +5.691528
1491872958.582216, 1491872958.584508, -0.140625, +1.040771, -0.167908, -3.234863, +1.220703, +5.691528
1491872958.584763, 1491872958.587057, -0.140625, +1.040771, -0.167908, -3.555298, +0.244141, +5.920410
1491872958.587316, 1491872958.589615, -0.140625, +1.040771, -0.167908, -3.555298, +0.244141, +5.920410
1491872958.589875, 1491872958.592427, -0.120667, +1.044983, -0.175598, -3.906250, -0.717163, +5.905151
1491872958.592693, 1491872958.595113, -0.120667, +1.044983, -0.175598, -3.906250, -0.717163, +5.844116
1491872958.595377, 1491872958.597800, -0.120667, +1.044983, -0.175598, -3.585815, -0.869751, +5.844116
1491872958.598064, 1491872958.600486, -0.120667, +1.044983, -0.175598, -3.585815, -0.869751, +5.950928
1491872958.600751, 1491872958.603175, -0.089905, +1.023193, -0.190247, -3.097534, -0.015259, +5.950928
1491872958.603441, 1491872958.605859, -0.089905, +1.023193, -0.190247, -3.097534, -0.015259, +5.935669
1491872958.606124, 1491872958.608545, -0.089905, +1.023193, -0.190247, -3.036499, +0.915527, +5.935669
1491872958.608808, 1491872958.611792, -0.089905, +1.023193, -0.190247, -3.036499, +1.556396, +5.950928
1491872958.612052, 1491872958.614341, -0.119202, +1.033997, -0.164612, -2.883911, +1.556396, +5.950928
1491872958.614600, 1491872958.616889, -0.119202, +1.033997, -0.164612, -2.929688, +1.846313, +5.889893
1491872958.617147, 1491872958.619438, -0.119202, +1.033997, -0.164612, -2.929688, +1.846313, +5.889893
1491872958.619694, 1491872958.622221, -0.119202, +1.037476, -0.159668, -3.173828, +1.388550, +6.820679
1491872958.622480, 1491872958.624775, -0.145386, +1.037476, -0.159668, -3.173828, +1.388550, +6.820679
1491872958.625030, 1491872958.627325, -0.145386, +1.037476, -0.159668, -3.173828, +0.411987, +7.141113
1491872958.627581, 1491872958.629875, -0.145386, +1.037476, -0.159668, -2.807617, +0.411987, +7.141113
1491872958.630157, 1491872958.632450, -0.098511, +1.030518, -0.169373, -2.807617, +0.122070, +7.522583
1491872958.632709, 1491872958.635005, -0.121033, +1.030518, -0.169373, -2.456665, +0.122070, +7.522583
1491872958.635264, 1491872958.637555, -0.121033, +1.030518, -0.169373, -2.456665, -3.784180, +7.949829
1491872958.637812, 1491872958.640146, -0.121033, +1.030518, -0.169373, -2.212524, -0.350952, +7.949829
1491872958.640410, 1491872958.642720, -0.121033, +1.039673, -0.182556, -2.212524, -0.350952, +7.629395
1491872958.643092, 1491872958.645387, -0.120850, +1.039673, -0.182556, -2.609253, -0.457764, +7.629395
1491872958.645658, 1491872958.648044, -0.120850, +1.039673, -0.182556, -2.609253, -0.457764, +7.720947
1491872958.648306, 1491872958.650635, -0.120850, +1.039673, -0.182556, -2.838135, -1.083374, +7.720947
1491872958.650901, 1491872958.653325, -0.109680, +1.040771, -0.175049, -2.838135, -1.083374, +7.705688
1491872958.653589, 1491872958.656006, -0.109680, +1.040771, -0.175049, -3.082275, -1.953125, +7.705688
1491872958.656269, 1491872958.658687, -0.109680, +1.040771, -0.175049, -3.082275, -3.067017, +7.095337
1491872958.658953, 1491872958.661334, -0.109680, +1.040771, -0.175049, -3.463745, -3.067017, +7.095337
1491872958.661591, 1491872958.663888, -0.075806, +1.031067, -0.192993, -3.463745, -3.067017, +6.759644
1491872958.664144, 1491872958.666449, -0.075806, +1.031067, -0.192993, -3.448486, -3.875732, +6.759644
1491872958.666705, 1491872958.669000, -0.075806, +1.031067, -0.192993, -3.448486, -7.781982, +6.317139
1491872958.669255, 1491872958.671640, -0.075806, +1.031067, -0.192993, -3.601074, -3.921509, +6.317139
1491872958.671905, 1491872958.674333, -0.046326, +1.020630, -0.205994, -3.601074, -3.921509, +6.256104
1491872958.674596, 1491872958.677014, -0.046326, +1.020630, -0.205994, -3.646851, -4.074097, +6.256104
1491872958.677277, 1491872958.679696, -0.046326, +1.020630, -0.205994, -3.646851, -0.167847, +5.920410
1491872958.679960, 1491872958.682284, -0.046326, +1.020630, -0.205994, -3.250122, -3.814697, +5.920410
1491872958.682539, 1491872958.684833, -0.031860, +1.014221, -0.211853, -3.250122, -3.814697, +5.325317
1491872958.685089, 1491872958.687391, -0.031860, +1.014221, -0.211853, -3.463745, -2.731323, +5.325317
1491872958.687646, 1491872958.689945, -0.031860, +1.014221, -0.211853, -3.463745, -2.731323, +4.928589
1491872958.690283, 1491872958.692590, -0.031860, +1.014221, -0.178894, -3.585815, -1.647949, +4.928589
1491872958.692847, 1491872958.695148, -0.089722, +1.046265, -0.178894, -3.585815, -1.647949, +3.936768
1491872958.695405, 1491872958.697703, -0.089722, +1.046265, -0.178894, -4.302979, -1.312256, +3.936768
1491872958.697960, 1491872958.700398, -0.089722, +1.046265, -0.178894, -4.302979, -1.312256, +3.173828
1491872958.700663, 1491872958.703092, -0.089722, +1.046265, -0.162598, -4.821777, -1.403809, +3.173828
1491872958.703357, 1491872958.705773, -0.098511, +1.037292, -0.162598, -4.821777, -1.403809, +2.471924
1491872958.706037, 1491872958.708460, -0.098511, +1.037292, -0.162598, -5.783081, -1.464844, +2.471924
1491872958.708722, 1491872958.711105, -0.098511, +1.037292, -0.162598, -5.783081, -1.464844, +1.617432
1491872958.711360, 1491872958.713656, -0.051636, +1.050476, -0.163696, -7.080078, -1.495361, +1.617432
1491872958.713912, 1491872958.716214, -0.075806, +1.050476, -0.163696, -7.080078, -1.495361, +0.244141
1491872958.716470, 1491872958.718769, -0.075806, +1.050476, -0.163696, -6.851196, -0.534058, +0.244141
1491872958.719027, 1491872958.721401, -0.075806, +1.050476, -0.163696, -6.851196, -0.534058, -0.717163
1491872958.721669, 1491872958.724081, -0.065552, +1.049561, -0.181458, -8.071899, -0.305176, -0.717163
1491872958.724346, 1491872958.726749, -0.065552, +1.049561, -0.181458, -8.071899, -0.305176, -2.273560
1491872958.727014, 1491872958.729426, -0.065552, +1.049561, -0.181458, -9.063721, -0.549316, -2.273560
1491872958.729691, 1491872958.732090, -0.065552, +1.049561, -0.181458, -9.063721, -0.549316, -3.509521
1491872958.732353, 1491872958.734731, -0.051453, +1.048096, -0.187134, -10.131836, -0.625610, -3.509521
1491872958.734998, 1491872958.737621, -0.051453, +1.048096, -0.187134, -10.131836, -1.113892, -4.943848
1491872958.737886, 1491872958.740336, -0.051453, +1.048096, -0.187134, -11.398315, -1.113892, -4.943848
1491872958.740599, 1491872958.742890, -0.051453, +1.048096, -0.187134, -11.398315, -1.831055, -5.935669
1491872958.743151, 1491872958.745446, -0.073425, +1.071167, -0.175049, -12.771606, -1.831055, -5.935669
1491872958.745705, 1491872958.747993, -0.073425, +1.071167, -0.175049, -12.771606, -1.831055, -7.446289
1491872958.748363, 1491872958.750775, -0.073425, +1.071167, -0.175049, -13.961792, -3.204346, -7.446289
1491872958.751037, 1491872958.753327, -0.073425, +1.071167, -0.175049, -13.961792, -4.470825, -9.368896
1491872958.753587, 1491872958.755882, -0.071045, +1.095886, -0.157104, -15.274048, -4.470825, -9.368896
1491872958.756143, 1491872958.758437, -0.071045, +1.095886, -0.157104, -15.274048, -4.470825, -10.757446
1491872958.758702, 1491872958.761043, -0.071045, +1.095886, -0.157104, -16.891479, -5.920410, -10.757446
1491872958.761309, 1491872958.763599, -0.071045, +1.095886, -0.136230, -16.891479, -5.920410, -12.313843
1491872958.763863, 1491872958.766153, -0.076904, +1.124084, -0.136230, -18.829346, -7.553101, -12.313843
1491872958.766419, 1491872958.768706, -0.076904, +1.124084, -0.136230, -18.829346, -7.553101, -14.572144
1491872958.768969, 1491872958.771282, -0.076904, +1.124084, -0.136230, -20.385742, -9.292603, -14.572144
1491872958.771547, 1491872958.773835, -0.076904, +1.124084, -0.123962, -20.385742, -9.292603, -18.478394
1491872958.774100, 1491872958.776394, -0.072327, +1.151733, -0.123962, -22.628784, -11.138916, -16.921997
1491872958.776660, 1491872958.778960, -0.072327, +1.151733, -0.123962, -22.628784, -11.138916, -16.921997
1491872958.779227, 1491872958.781614, -0.072327, +1.151733, -0.123962, -25.131226, -13.580322, -19.409180
1491872958.781888, 1491872958.784307, -0.072327, +1.151733, -0.171204, -25.131226, -13.580322, -23.315430
1491872958.784581, 1491872958.787009, -0.029297, +1.157227, -0.171204, -28.244019, -14.938354, -22.308350
1491872958.787282, 1491872958.789705, -0.029297, +1.157227, -0.171204, -28.244019, -14.938354, -25.314331
1491872958.789978, 1491872958.792417, -0.029297, +1.157227, -0.171204, -30.456543, -16.082764, -25.314331
1491872958.792690, 1491872958.795111, +0.023254, +1.117310, -0.222839, -30.456543, -16.082764, -28.717041
1491872958.795385, 1491872958.797808, +0.023254, +1.117310, -0.222839, -32.821655, -18.325806, -28.717041
1491872958.798082, 1491872958.800521, +0.023254, +1.117310, -0.222839, -32.821655, -22.232056, -32.287598
1491872958.800794, 1491872958.803216, +0.023254, +1.117310, -0.222839, -34.423828, -20.431519, -32.287598
1491872958.803491, 1491872958.805911, +0.062988, +1.089294, -0.303040, -34.423828, -20.431519, -36.178589
1491872958.806186, 1491872958.808614, +0.062988, +1.089294, -0.303040, -35.842896, -22.750854, -36.178589
1491872958.808887, 1491872958.811259, +0.062988, +1.089294, -0.303040, -35.842896, -25.268555, -39.855957
1491872958.811526, 1491872958.813831, +0.062988, +1.089294, -0.303040, -37.094116, -25.268555, -39.855957
1491872958.814099, 1491872958.816399, +0.076904, +1.104309, -0.276672, -37.094116, -29.174805, -43.884277
1491872958.816666, 1491872958.818963, +0.076904, +1.104309, -0.276672, -37.750244, -28.152466, -43.884277
1491872958.819228, 1491872958.821608, +0.076904, +1.104309, -0.276672, -37.750244, -32.058716, -47.760010
1491872958.821882, 1491872958.824290, +0.076904, +1.104309, -0.276672, -38.162231, -31.799316, -47.760010
1491872958.824564, 1491872958.826971, +0.086243, +1.196777, -0.260193, -38.162231, -35.705566, -51.834106
1491872958.827245, 1491872958.829660, +0.086243, +1.196777, -0.260193, -37.979126, -35.675049, -51.834106
1491872958.829933, 1491872958.832352, +0.086243, +1.196777, -0.260193, -37.979126, -37.887573, -55.938721
1491872958.832626, 1491872958.835039, +0.086243, +1.243652, -0.227783, -38.497925, -37.887573, -55.938721
1491872958.835311, 1491872958.837721, +0.117004, +1.245117, -0.227783, -38.497925, -37.719727, -59.387207
1491872958.837994, 1491872958.840405, +0.117004, +1.245117, -0.227783, -38.208008, -37.719727, -59.387207
1491872958.840679, 1491872958.843090, +0.117004, +1.245117, -0.227783, -38.208008, -37.368774, -62.911987
1491872958.843363, 1491872958.845771, +0.176514, +1.255005, -0.276855, -38.085938, -37.368774, -62.911987
1491872958.846044, 1491872958.848452, +0.176514, +1.255005, -0.276855, -38.696289, -39.108276, -64.956665
1491872958.848723, 1491872958.851152, +0.176514, +1.255005, -0.276855, -38.696289, -39.108276, -64.956665
1491872958.851532, 1491872958.853941, +0.176514, +1.255005, -0.276855, -40.344238, -43.273926, -64.682007
1491872958.854214, 1491872958.856628, +0.298828, +1.204285, -0.282532, -40.344238, -43.273926, -64.682007
1491872958.856901, 1491872958.859310, +0.298828, +1.204285, -0.282532, -39.382935, -48.568726, -60.760498
1491872958.859584, 1491872958.861985, +0.298828, +1.204285, -0.282532, -39.382935, -48.568726, -60.760498
1491872958.862270, 1491872958.864591, +0.298828, +1.204285, -0.282532, -32.821655, -56.030273, -54.946899
1491872958.864860, 1491872958.867150, +0.595825, +1.303162, -0.491638, -32.821655, -56.030273, -54.946899
1491872958.867415, 1491872958.869704, +0.595825, +1.303162, -0.491638, -31.600952, -63.293457, -50.888062
1491872958.869970, 1491872958.872423, +0.595825, +1.303162, -0.491638, -31.600952, -63.293457, -50.888062
1491872958.872690, 1491872958.874980, +0.595825, +1.303162, -0.163513, -34.729004, -59.890747, -48.065186
1491872958.875246, 1491872958.877544, +0.950317, +1.174622, -0.166077, -34.729004, -59.890747, -48.065186
1491872958.877810, 1491872958.880182, +0.950317, +1.174622, -0.166077, -30.975342, -51.589966, -43.701172
1491872958.880453, 1491872958.882745, +0.950317, +1.174622, -0.166077, -30.975342, -51.589966, -43.701172
1491872958.883012, 1491872958.885304, +0.950317, +1.174622, -0.210938, -24.429321, -47.149658, -37.933350
1491872958.885571, 1491872958.887861, +0.760437, +1.036194, -0.210938, -24.429321, -47.149658, -37.933350
1491872958.888128, 1491872958.890470, +0.760437, +1.036194, -0.210938, -20.980835, -46.279907, -28.762817
1491872958.890735, 1491872958.893030, +0.760437, +1.036194, -0.210938, -20.980835, -46.279907, -28.762817
1491872958.893295, 1491872958.895589, +0.760437, +1.036194, -0.254333, -17.074585, -42.999268, -18.997192
1491872958.895854, 1491872958.898155, +0.893005, +0.955994, -0.254333, -17.242432, -42.999268, -18.997192
1491872958.898421, 1491872958.900719, +0.893005, +0.955994, -0.254333, -13.336182, -40.420532, -10.177612
1491872958.900985, 1491872958.903276, +0.893005, +0.955994, -0.254333, -13.748169, -40.420532, -10.177612
1491872958.903542, 1491872958.905835, +0.893005, +0.909119, -0.241699, -13.748169, -38.040161, -2.838135
1491872958.906098, 1491872958.908388, +0.943176, +0.903076, -0.241699, -9.613037, -38.040161, -2.838135
1491872958.908649, 1491872958.910947, +0.943176, +0.903076, -0.241699, -9.613037, -38.040161, +4.837036
1491872958.911207, 1491872958.913509, +0.943176, +0.903076, -0.241699, -5.569458, -35.461426, +4.837036
1491872958.913771, 1491872958.916067, +0.943176, +0.854004, -0.228699, -5.569458, -35.461426, +12.695312
1491872958.916333, 1491872958.918637, +0.847046, +0.854004, -0.228699, -1.541138, -34.179688, +12.695312
1491872958.918901, 1491872958.921312, +0.847046, +0.854004, -0.228699, -1.541138, -34.179688, +21.057129
1491872958.921584, 1491872958.924008, +0.847046, +0.854004, -0.228699, +2.426147, -32.150269, +21.057129
1491872958.924280, 1491872958.926709, +0.753296, +0.857300, -0.179260, +2.426147, -32.150269, +29.556274
1491872958.926980, 1491872958.929400, +0.781860, +0.857300, -0.179260, +5.981445, -28.533936, +29.556274
1491872958.929670, 1491872958.932107, +0.781860, +0.857300, -0.179260, +5.981445, -24.627686, +37.643433
1491872958.932379, 1491872958.934804, +0.781860, +0.857300, -0.179260, +8.621216, -24.536133, +37.643433
1491872958.935077, 1491872958.937498, +0.680603, +0.877625, -0.124512, +8.621216, -20.996094, +46.035767
1491872958.937770, 1491872958.940204, +0.680603, +0.877625, -0.124512, +10.772705, -20.996094, +46.035767
1491872958.940479, 1491872958.942904, +0.680603, +0.877625, -0.124512, +14.678955, -16.906738, +54.672241
1491872958.943179, 1491872958.945597, +0.680603, +0.877625, -0.124512, +12.924194, -16.906738, +54.672241
1491872958.945870, 1491872958.948293, +0.654602, +0.895935, -0.087158, +12.924194, -12.359619, +62.408447
1491872958.948568, 1491872958.950997, +0.654602, +0.895935, -0.087158, +14.617920, -12.359619, +62.408447
1491872958.951372, 1491872958.953793, +0.654602, +0.895935, -0.087158, +16.296387, -7.110596, +69.046021
1491872958.954065, 1491872958.956494, +0.654602, +0.895935, -0.058411, +16.296387, -7.110596, +69.046021
1491872958.956767, 1491872958.959188, +0.610474, +0.934753, -0.058411, +17.684937, -2.044678, +75.714111
1491872958.959461, 1491872958.961801, +0.610474, +0.934753, -0.058411, +17.684937, -2.044678, +75.714111
1491872958.962067, 1491872958.964366, +0.610474, +0.934753, -0.058411, +19.607544, +2.685547, +81.222534
1491872958.964631, 1491872958.966924, +0.610474, +0.975403, -0.047974, +19.607544, +2.685547, +81.222534
1491872958.967189, 1491872958.969490, +0.565430, +0.975403, -0.047974, +20.782471, +7.507324, +85.830688
1491872958.969755, 1491872958.972158, +0.565430, +0.975403, -0.047974, +20.782471, +7.507324, +85.830688
1491872958.972430, 1491872958.974839, +0.565430, +0.975403, -0.047974, +21.682739, +11.398315, +89.630127
1491872958.975113, 1491872958.977527, +0.476074, +1.016602, -0.040100, +21.682739, +11.398315, +89.630127
1491872958.977802, 1491872958.980210, +0.476074, +1.016602, -0.040100, +22.750854, +15.121460, +93.841553
1491872958.980484, 1491872958.982875, +0.476074, +1.016602, -0.040100, +22.750854, +15.121460, +93.841553
1491872958.983148, 1491872958.985530, +0.476074, +1.016602, -0.040100, +23.742676, +17.639160, +97.198486
1491872958.985803, 1491872958.988431, +0.367126, +1.064575, -0.047424, +23.742676, +17.639160, +97.198486
1491872958.988699, 1491872958.991244, +0.367126, +1.064575, -0.047424, +24.734497, +19.393921, +100.051880
1491872958.991514, 1491872958.993803, +0.367126, +1.064575, -0.047424, +24.734497, +19.393921, +100.051880
1491872958.994069, 1491872958.996361, +0.367126, +1.064575, -0.047424, +25.344849, +20.019531, +102.371216
1491872958.996628, 1491872958.998926, +0.306702, +1.109436, -0.096680, +25.344849, +20.019531, +102.371216
1491872958.999194, 1491872959.001666, +0.306702, +1.109436, -0.096680, +26.321411, +19.866943, +104.507446
1491872959.001935, 1491872959.004235, +0.306702, +1.109436, -0.096680, +26.321411, +19.866943, +104.507446
1491872959.004502, 1491872959.006787, +0.306702, +1.109436, -0.096680, +27.343750, +19.989014, +106.002808
1491872959.007056, 1491872959.009346, +0.277405, +1.133606, -0.109497, +27.343750, +19.989014, +106.002808
1491872959.009613, 1491872959.011913, +0.277405, +1.133606, -0.109497, +28.564453, +21.255493, +106.506348
1491872959.012179, 1491872959.014468, +0.277405, +1.133606, -0.109497, +28.564453, +21.255493, +106.506348
1491872959.014736, 1491872959.017019, +0.277405, +1.133606, -0.103455, +29.495239, +25.482178, +106.872559
1491872959.017286, 1491872959.019580, +0.213135, +1.149902, -0.103455, +29.495239, +25.482178, +106.872559
1491872959.019847, 1491872959.022186, +0.213135, +1.149902, -0.103455, +29.617310, +30.487061, +106.628418
1491872959.022454, 1491872959.024749, +0.213135, +1.149902, -0.103455, +29.617310, +30.487061, +106.628418
1491872959.025017, 1491872959.027306, +0.213135, +1.149902, -0.088989, +29.205322, +32.409668, +106.506348
1491872959.027572, 1491872959.029861, -0.009705, +1.157043, -0.088989, +29.205322, +32.409668, +106.506348
1491872959.030114, 1491872959.032545, -0.009705, +1.157043, -0.088989, +29.357910, +31.204224, +107.482910
1491872959.032820, 1491872959.035237, -0.009705, +1.157043, -0.088989, +29.357910, +31.204224, +107.482910
1491872959.035512, 1491872959.037925, -0.009705, +1.146790, -0.068848, +28.396606, +29.098511, +108.627319
1491872959.038201, 1491872959.040631, -0.118103, +1.146790, -0.068848, +28.396606, +29.098511, +108.627319
1491872959.040906, 1491872959.043320, -0.118103, +1.146790, -0.068848, +28.121948, +26.489258, +109.619141
1491872959.043594, 1491872959.046024, -0.118103, +1.146790, -0.068848, +28.121948, +26.489258, +109.619141
1491872959.046298, 1491872959.048713, -0.060242, +1.166199, -0.100891, +27.542114, +25.711060, +110.397339
1491872959.048988, 1491872959.051345, -0.060242, +1.166199, -0.100891, +27.542114, +25.711060, +110.397339
1491872959.051613, 1491872959.053914, -0.060242, +1.166199, -0.100891, +27.374268, +26.153564, +110.137939
1491872959.054294, 1491872959.056594, -0.060242, +1.166199, -0.100891, +27.374268, +26.153564, +110.137939
1491872959.056862, 1491872959.059158, +0.004211, +1.181396, -0.097412, +27.221680, +28.656006, +109.298706
1491872959.059426, 1491872959.061823, +0.004211, +1.181396, -0.097412, +27.221680, +28.656006, +109.298706
1491872959.062099, 1491872959.064517, +0.004211, +1.181396, -0.097412, +26.397705, +31.112671, +107.666016
1491872959.064792, 1491872959.067214, +0.004211, +1.181396, -0.097412, +26.397705, +31.112671, +107.666016
1491872959.067487, 1491872959.069905, -0.015564, +1.186523, -0.089355, +25.756836, +32.867432, +105.300903
1491872959.070189, 1491872959.072605, -0.015564, +1.186523, -0.089355, +25.756836, +32.867432, +105.300903
1491872959.072879, 1491872959.075305, -0.015564, +1.186523, -0.089355, +24.581909, +33.767700, +102.874756
1491872959.075579, 1491872959.077997, -0.015564, +1.186523, -0.094666, +24.581909, +33.767700, +102.874756
1491872959.078271, 1491872959.080698, -0.073975, +1.151001, -0.094666, +24.078369, +33.843994, +100.875854
1491872959.080970, 1491872959.083391, -0.073975, +1.151001, -0.094666, +24.078369, +33.843994, +100.875854
1491872959.083665, 1491872959.086088, -0.073975, +1.151001, -0.094666, +23.391724, +32.852173, +98.953247
1491872959.086362, 1491872959.088792, -0.073975, +1.106323, -0.113892, +23.391724, +32.852173, +98.953247
1491872959.089066, 1491872959.091493, -0.081116, +1.106323, -0.113892, +22.705078, +31.845093, +96.359253
1491872959.091768, 1491872959.094182, -0.081116, +1.106323, -0.113892, +22.705078, +31.845093, +96.359253
1491872959.094454, 1491872959.096880, -0.081116, +1.106323, -0.113892, +23.529053, +30.456543, +94.055176
1491872959.097155, 1491872959.099572, -0.040833, +1.077026, -0.153259, +23.529053, +30.456543, +94.055176
1491872959.099846, 1491872959.102194, -0.040833, +1.077026, -0.153259, +24.459839, +29.998779, +91.690063
1491872959.102463, 1491872959.104765, -0.040833, +1.077026, -0.153259, +24.459839, +29.998779, +91.690063
1491872959.105032, 1491872959.107330, -0.040833, +1.077026, -0.153259, +24.856567, +31.738281, +89.706421
1491872959.107596, 1491872959.109897, -0.023071, +1.071899, -0.128357, +24.856567, +31.738281, +89.706421
1491872959.110168, 1491872959.112553, -0.023071, +1.071899, -0.128357, +24.841309, +38.452148, +87.921143
1491872959.112824, 1491872959.115275, -0.023071, +1.071899, -0.128357, +24.841309, +38.452148, +87.921143
1491872959.115548, 1491872959.117973, -0.023071, +1.071899, -0.128357, +23.269653, +45.593262, +85.983276
1491872959.118245, 1491872959.120717, -0.219543, +1.076111, -0.080750, +23.269653, +45.593262, +85.983276
1491872959.120991, 1491872959.123410, -0.219543, +1.076111, -0.080750, +21.835327, +47.973633, +83.663940
1491872959.123684, 1491872959.126110, -0.219543, +1.076111, -0.080750, +21.835327, +47.973633, +83.663940
1491872959.126385, 1491872959.128803, -0.219543, +1.076111, -0.079468, +20.339966, +45.837402, +82.244873
1491872959.129078, 1491872959.131516, -0.459778, +1.079590, -0.079468, +20.339966, +45.837402, +78.338623
1491872959.131789, 1491872959.134209, -0.459778, +1.079590, -0.079468, +19.760132, +39.855957, +80.398560
1491872959.134483, 1491872959.136907, -0.459778, +1.079590, -0.079468, +19.760132, +39.855957, +79.956055
1491872959.137182, 1491872959.139610, -0.459778, +1.085266, -0.097229, +18.951416, +32.455444, +79.956055
1491872959.139884, 1491872959.142201, -0.441833, +1.085266, -0.097229, +18.951416, +32.455444, +80.337524
1491872959.142468, 1491872959.144759, -0.441833, +1.085266, -0.097229, +19.302368, +26.748657, +80.337524
1491872959.145026, 1491872959.147319, -0.441833, +1.085266, -0.097229, +19.302368, +26.748657, +79.544067
1491872959.147586, 1491872959.149875, -0.218628, +1.025208, -0.142090, +19.210815, +24.017334, +79.544067
1491872959.150138, 1491872959.152436, -0.218628, +1.025208, -0.142090, +19.210815, +24.017334, +79.544067
1491872959.152703, 1491872959.154995, -0.218628, +1.025208, -0.142090, +19.592285, +24.642944, +78.628540
1491872959.155361, 1491872959.157657, -0.218628, +1.025208, -0.142090, +19.592285, +24.642944, +74.722290
1491872959.157922, 1491872959.160274, -0.078735, +1.001221, -0.133667, +19.805908, +27.282715, +77.133179
1491872959.160548, 1491872959.162973, -0.078735, +1.001221, -0.133667, +19.805908, +27.282715, +77.133179
1491872959.163248, 1491872959.165668, -0.078735, +1.001221, -0.133667, +19.256592, +31.326294, +75.164795
1491872959.165941, 1491872959.168363, -0.078735, +1.001221, -0.133667, +19.256592, +31.326294, +72.219849
1491872959.168636, 1491872959.171100, -0.099426, +1.027954, -0.133118, +18.981934, +34.164429, +72.219849
1491872959.171374, 1491872959.173799, -0.099426, +1.027954, -0.133118, +18.981934, +34.164429, +69.702148
1491872959.174074, 1491872959.176492, -0.099426, +1.027954, -0.133118, +17.990112, +35.552979, +69.702148
1491872959.176766, 1491872959.179185, -0.099426, +1.027954, -0.133118, +17.990112, +35.552979, +67.581177
1491872959.179458, 1491872959.181891, -0.145386, +1.051575, -0.128906, +17.654419, +35.278320, +67.581177
1491872959.182163, 1491872959.184587, -0.145386, +1.051575, -0.128906, +17.654419, +31.372070, +65.490723
1491872959.184861, 1491872959.187287, -0.145386, +1.051575, -0.128906, +17.547607, +34.683228, +65.490723
1491872959.187560, 1491872959.189987, -0.145386, +1.024841, -0.162964, +17.547607, +33.462524, +63.293457
1491872959.190327, 1491872959.192747, -0.123596, +1.024841, -0.162964, +18.127441, +33.462524, +63.293457
1491872959.193021, 1491872959.195448, -0.123596, +1.024841, -0.162964, +18.127441, +32.699585, +61.477661
1491872959.195723, 1491872959.198142, -0.123596, +1.024841, -0.162964, +18.630981, +32.699585, +61.477661
1491872959.198415, 1491872959.200842, -0.057129, +1.003052, -0.178345, +18.630981, +33.416748, +59.692383
1491872959.201109, 1491872959.203413, -0.057129, +1.003052, -0.178345, +18.630981, +33.416748, +59.692383
1491872959.203679, 1491872959.205973, -0.057129, +1.003052, -0.178345, +19.104004, +37.689209, +57.067871
1491872959.206240, 1491872959.208535, -0.057129, +1.003052, -0.178345, +19.104004, +37.689209, +57.067871
1491872959.208800, 1491872959.211169, -0.092468, +0.990967, -0.145020, +19.104004, +43.350220, +54.702759
1491872959.211445, 1491872959.213852, -0.092468, +0.990967, -0.145020, +17.929077, +43.350220, +54.702759
1491872959.214124, 1491872959.216536, -0.092468, +0.990967, -0.145020, +16.967773, +44.189453, +53.070068
1491872959.216810, 1491872959.219214, -0.092468, +0.990967, -0.145020, +16.967773, +44.189453, +53.070068
1491872959.219487, 1491872959.221895, -0.264404, +0.948120, -0.124695, +16.494751, +41.641235, +50.292969
1491872959.222167, 1491872959.224576, -0.264404, +0.948120, -0.124695, +16.494751, +41.641235, +50.292969
1491872959.224848, 1491872959.227252, -0.264404, +0.948120, -0.124695, +17.852783, +36.621094, +47.790527
1491872959.227528, 1491872959.229928, -0.264404, +0.948120, -0.124695, +17.852783, +36.621094, +47.790527
1491872959.230209, 1491872959.232589, -0.314941, +0.871216, -0.138611, +19.866943, +29.647827, +47.866821
1491872959.232858, 1491872959.235242, -0.314941, +0.871216, -0.138611, +19.866943, +29.647827, +47.866821
1491872959.235512, 1491872959.237901, -0.314941, +0.871216, -0.138611, +20.858765, +22.674561, +48.004150
1491872959.238171, 1491872959.240708, -0.314941, +0.918091, -0.144287, +20.858765, +22.674561, +48.004150
1491872959.240989, 1491872959.243374, -0.196838, +0.902710, -0.144287, +21.499634, +17.654419, +47.424316
1491872959.243648, 1491872959.246034, -0.196838, +0.902710, -0.144287, +21.499634, +17.654419, +47.424316
1491872959.246305, 1491872959.248688, -0.196838, +0.902710, -0.144287, +21.682739, +15.380859, +47.271729
1491872959.248959, 1491872959.251481, -0.082581, +0.938232, -0.152710, +21.682739, +15.380859, +47.271729
1491872959.251750, 1491872959.254052, -0.082581, +0.938232, -0.152710, +21.850586, +15.716553, +46.249390
1491872959.254318, 1491872959.256613, -0.082581, +0.938232, -0.152710, +21.850586, +15.716553, +46.249390
1491872959.256880, 1491872959.259178, -0.082581, +0.938232, -0.152710, +21.514893, +15.655518, +44.357300
1491872959.259626, 1491872959.262119, -0.061890, +0.973022, -0.153625, +21.514893, +15.655518, +44.357300
1491872959.262392, 1491872959.264773, -0.061890, +0.973022, -0.153625, +21.743774, +15.640259, +42.312622
1491872959.265043, 1491872959.267433, -0.061890, +0.973022, -0.153625, +21.743774, +15.640259, +42.312622
1491872959.267704, 1491872959.270213, -0.061890, +0.973022, -0.153625, +20.721436, +15.579224, +39.382935
1491872959.270488, 1491872959.272873, -0.071411, +1.014587, -0.122131, +20.721436, +15.579224, +39.382935
1491872959.273145, 1491872959.275530, -0.071411, +1.014587, -0.122131, +20.126343, +15.731812, +35.842896
1491872959.275802, 1491872959.278184, -0.071411, +1.014587, -0.122131, +20.126343, +15.731812, +35.842896
1491872959.278455, 1491872959.280892, -0.071411, +1.014587, -0.121399, +19.927979, +15.853882, +32.516479
1491872959.281167, 1491872959.283585, -0.045776, +1.006714, -0.121399, +19.927979, +15.853882, +32.516479
1491872959.283858, 1491872959.286277, -0.045776, +1.006714, -0.121399, +19.409180, +16.540527, +29.190063
1491872959.286552, 1491872959.288976, -0.045776, +1.006714, -0.121399, +19.409180, +16.540527, +29.190063
1491872959.289250, 1491872959.291633, -0.045776, +0.957825, -0.117004, +19.088745, +17.639160, +25.817871
1491872959.291900, 1491872959.294190, -0.019958, +0.957825, -0.117004, +19.088745, +17.639160, +25.817871
1491872959.294456, 1491872959.296755, -0.019958, +0.957825, -0.117004, +19.470215, +20.431519, +22.811890
1491872959.297023, 1491872959.299318, -0.019958, +0.957825, -0.117004, +19.470215, +20.431519, +22.811890
1491872959.299585, 1491872959.302012, -0.113708, +0.923584, -0.079834, +18.936157, +22.750854, +18.920898
1491872959.302288, 1491872959.304714, -0.107300, +0.923584, -0.079834, +18.936157, +22.750854, +18.920898
1491872959.304989, 1491872959.307409, -0.107300, +0.923584, -0.079834, +18.310547, +21.408081, +15.518188
1491872959.307682, 1491872959.310120, -0.107300, +0.923584, -0.079834, +18.310547, +21.408081, +15.518188
1491872959.310395, 1491872959.312813, -0.233826, +0.896301, -0.054932, +17.486572, +16.601562, +12.710571
1491872959.313089, 1491872959.315505, -0.233826, +0.896301, -0.054932, +17.486572, +16.601562, +8.804321
1491872959.315777, 1491872959.318198, -0.233826, +0.896301, -0.054932, +17.456055, +10.589600, +10.559082
1491872959.318474, 1491872959.320904, -0.233826, +0.896301, -0.054932, +17.456055, +10.589600, +9.368896
1491872959.321175, 1491872959.323599, -0.183472, +0.892273, -0.072693, +17.105103, +4.928589, +9.368896
1491872959.323868, 1491872959.326284, -0.183472, +0.892273, -0.072693, +17.105103, +4.928589, +8.087158
1491872959.326551, 1491872959.328970, -0.183472, +0.892273, -0.072693, +16.738892, +0.808716, +8.087158
1491872959.329239, 1491872959.331710, -0.183472, +0.892273, -0.060791, +16.738892, -3.097534, +6.210327
1491872959.331980, 1491872959.334395, -0.061340, +0.933655, -0.060791, +15.518188, -1.098633, +6.210327
1491872959.334663, 1491872959.337081, -0.061340, +0.933655, -0.060791, +15.518188, -1.098633, +3.448486
1491872959.337349, 1491872959.339770, -0.061340, +0.933655, -0.060791, +14.007568, -1.358032, +3.448486
1491872959.340038, 1491872959.342374, -0.014465, +0.999023, -0.040649, +14.007568, -1.754761, +0.122070
1491872959.342636, 1491872959.344934, -0.045044, +0.999023, -0.040649, +12.680054, -1.754761, +0.122070
1491872959.345197, 1491872959.347490, -0.045044, +0.999023, -0.040649, +12.680054, -1.754761, -3.707886
1491872959.347752, 1491872959.350088, -0.045044, +0.999023, -0.040649, +10.147095, -2.593994, -3.707886
1491872959.350361, 1491872959.352778, -0.064819, +1.074646, -0.040833, +10.147095, -2.593994, -7.965088
1491872959.353046, 1491872959.355461, -0.064819, +1.074646, -0.040833, +7.736206, -3.723145, -7.965088
1491872959.355724, 1491872959.358139, -0.064819, +1.074646, -0.040833, +7.736206, -3.723145, -12.405396
1491872959.358406, 1491872959.360834, -0.064819, +1.074646, -0.040833, +5.722046, -3.723145, -12.405396
1491872959.361102, 1491872959.363527, -0.062805, +1.085083, -0.038635, +5.722046, -3.417969, -17.166138
1491872959.363908, 1491872959.366329, -0.062805, +1.085083, -0.038635, +3.631592, -3.417969, -17.166138
1491872959.366597, 1491872959.369015, -0.062805, +1.085083, -0.038635, +3.631592, -3.387451, -21.896362
1491872959.369282, 1491872959.371750, -0.062805, +1.085083, -0.038635, +1.937866, -3.387451, -21.896362
1491872959.372016, 1491872959.374440, -0.078003, +1.049377, -0.028015, +0.457764, -4.272461, -26.565552
1491872959.374709, 1491872959.377131, -0.078003, +1.049377, -0.028015, +0.457764, -4.272461, -26.565552
1491872959.377401, 1491872959.379819, -0.078003, +1.049377, -0.028015, -1.480103, -5.676270, -30.731201
1491872959.380098, 1491872959.382399, -0.078003, +1.049377, -0.048889, -1.480103, -5.676270, -30.731201
1491872959.382660, 1491872959.384957, -0.123596, +1.033447, -0.048889, -3.341675, -7.934570, -33.874512
1491872959.385218, 1491872959.387519, -0.123596, +1.033447, -0.048889, -3.341675, -7.934570, -33.874512
1491872959.387779, 1491872959.390112, -0.123596, +1.033447, -0.048889, -5.661011, -10.818481, -37.933350
1491872959.390376, 1491872959.392666, -0.123596, +1.033447, -0.087341, -5.661011, -10.818481, -37.933350
1491872959.392929, 1491872959.395230, -0.153259, +1.034546, -0.087341, -5.661011, -12.374878, -40.161133
1491872959.395492, 1491872959.397779, -0.153259, +1.034546, -0.087341, -6.072998, -12.374878, -40.161133
1491872959.398042, 1491872959.400361, -0.153259, +1.034546, -0.087341, -6.072998, -11.276245, -35.491943
1491872959.400633, 1491872959.403055, -0.153259, +1.159058, -0.396423, -2.624512, -11.276245, -35.491943
1491872959.403327, 1491872959.405748, -0.064087, +1.159058, -0.396423, -2.624512, -13.351440, -44.570923
1491872959.406018, 1491872959.408439, -0.064087, +1.159058, -0.396423, -3.738403, -13.351440, -44.570923
1491872959.408710, 1491872959.411142, -0.064087, +1.159058, -0.396423, -4.272461, -20.446777, -46.051025
1491872959.411414, 1491872959.413833, +0.259094, +0.893738, -0.501526, -4.272461, -20.446777, -46.051025
1491872959.414104, 1491872959.416522, +0.259094, +0.893738, -0.501526, -1.052856, -30.212402, -44.158936
1491872959.416795, 1491872959.419213, +0.259094, +0.893738, -0.501526, -1.052856, -30.212402, -44.158936
1491872959.419483, 1491872959.421915, +0.259094, +0.893738, -0.501526, -0.244141, -38.711548, -44.006348
1491872959.422186, 1491872959.424612, +0.647278, +1.189453, -0.479370, -0.244141, -38.711548, -44.006348
1491872959.424882, 1491872959.427304, +0.647278, +1.189453, -0.479370, -1.754761, -51.177979, -44.586182
1491872959.427574, 1491872959.430000, +0.647278, +1.189453, -0.479370, -1.754761, -51.177979, -44.586182
1491872959.430324, 1491872959.432615, +0.647278, +1.189453, -0.479370, -1.815796, -53.573608, -47.256470
1491872959.432878, 1491872959.435167, +0.663208, +1.101562, -0.397156, -1.815796, -53.573608, -47.256470
1491872959.435432, 1491872959.437733, +0.663208, +1.101562, -0.397156, -2.853394, -48.477173, -50.354004
1491872959.437995, 1491872959.440338, +0.663208, +1.101562, -0.397156, -2.853394, -48.477173, -50.354004
1491872959.440609, 1491872959.443027, +0.663208, +1.101562, -0.209656, -4.226685, -41.488647, -56.350708
1491872959.443298, 1491872959.445721, +0.477173, +1.181763, -0.204346, -4.226685, -41.488647, -56.350708
1491872959.445992, 1491872959.448411, +0.477173, +1.181763, -0.204346, -5.340576, -37.185669, -62.759399
1491872959.448682, 1491872959.451116, +0.477173, +1.181763, -0.204346, -5.340576, -37.185669, -62.759399
1491872959.451386, 1491872959.453801, +0.477173, +1.218018, -0.186035, -4.730225, -32.485962, -67.260742
1491872959.454073, 1491872959.456491, +0.355591, +1.218018, -0.186035, -4.730225, -32.485962, -67.260742
1491872959.456762, 1491872959.459186, +0.355591, +1.218018, -0.186035, -4.318237, -27.694702, -69.290161
1491872959.459457, 1491872959.461886, +0.355591, +1.218018, -0.186035, -4.318237, -27.694702, -69.290161
1491872959.462157, 1491872959.464571, +0.348999, +1.098999, -0.234009, -2.731323, -20.553589, -71.487427
1491872959.464842, 1491872959.467263, +0.348999, +1.098999, -0.234009, -2.731323, -20.553589, -71.487427
1491872959.467641, 1491872959.470099, +0.348999, +1.098999, -0.234009, -0.595093, -11.581421, -73.608398
1491872959.470370, 1491872959.472794, +0.348999, +1.098999, -0.234009, -0.595093, -11.581421, -73.608398
1491872959.473066, 1491872959.475484, +0.248108, +1.066589, -0.237305, +1.052856, -4.699707, -75.988770
1491872959.475753, 1491872959.478170, +0.248108, +1.066589, -0.237305, +1.052856, -4.699707, -75.988770
1491872959.478438, 1491872959.480868, +0.248108, +1.066589, -0.237305, +1.770020, -1.449585, -77.285767
1491872959.481129, 1491872959.483426, +0.248108, +1.066589, -0.096680, +1.770020, -1.449585, -77.285767
1491872959.483686, 1491872959.485980, +0.081665, +1.117676, -0.099060, +1.129150, -3.234863, -77.819824
1491872959.486240, 1491872959.488536, +0.081665, +1.117676, -0.099060, +1.129150, -3.234863, -77.819824
1491872959.488797, 1491872959.491159, +0.081665, +1.117676, -0.099060, -0.289917, -9.246826, -78.094482
1491872959.491428, 1491872959.493853, +0.081665, +1.117676, +0.019592, -0.289917, -9.246826, -78.094482
1491872959.494123, 1491872959.496540, -0.007507, +1.182678, +0.019592, -1.296997, -14.831543, -78.475952
1491872959.496814, 1491872959.499231, -0.007507, +1.182678, +0.019592, -1.296997, -14.831543, -78.475952
1491872959.499502, 1491872959.501937, -0.007507, +1.182678, +0.019592, -1.647949, -16.174316, -77.835083
1491872959.502210, 1491872959.504626, -0.007507, +1.130127, -0.036804, -1.647949, -16.174316, -77.835083
1491872959.504897, 1491872959.507322, +0.034424, +1.130127, -0.036804, -0.274658, -16.296387, -77.117920
1491872959.507594, 1491872959.510013, +0.034424, +1.130127, -0.036804, -0.274658, -16.296387, -77.117920
1491872959.510344, 1491872959.512762, +0.034424, +1.130127, -0.036804, +1.037598, -15.197754, -74.676514
1491872959.513033, 1491872959.515462, +0.149414, +1.092957, -0.003296, +1.037598, -15.197754, -71.090698
1491872959.515734, 1491872959.518154, +0.149414, +1.092957, -0.003296, +1.144409, -13.137817, -71.090698
1491872959.518424, 1491872959.520891, +0.149414, +1.092957, -0.003296, +1.144409, -13.137817, -68.679810
1491872959.521164, 1491872959.523584, +0.149414, +1.092957, -0.003296, +2.944946, -5.676270, -68.679810
1491872959.523854, 1491872959.526271, +0.201233, +1.017334, -0.021240, +2.944946, -5.676270, -69.152832
1491872959.526540, 1491872959.528957, +0.201233, +1.017334, -0.021240, +7.583618, +7.919312, -69.152832
1491872959.529225, 1491872959.531631, +0.201233, +1.017334, -0.021240, +7.583618, +19.638062, -69.564819
1491872959.531895, 1491872959.534192, +0.201233, +1.017334, -0.208740, +12.222290, +21.499634, -69.564819
1491872959.534457, 1491872959.536757, +0.150330, +0.979065, -0.215332, +12.222290, +21.499634, -69.488525
1491872959.537022, 1491872959.539315, +0.150330, +0.979065, -0.215332, +15.991211, +33.035278, -69.488525
1491872959.539581, 1491872959.541997, +0.150330, +0.979065, -0.215332, +15.991211, +33.035278, -67.657471
1491872959.542274, 1491872959.544700, +0.150330, +0.979065, -0.538147, +22.064209, +46.325684, -67.657471
1491872959.544974, 1491872959.547392, -0.149597, +1.070068, -0.538147, +22.064209, +54.138184, -70.785522
1491872959.547665, 1491872959.550096, -0.149597, +1.070068, -0.538147, +24.063110, +54.397583, -70.785522
1491872959.550371, 1491872959.552795, -0.149597, +1.070068, -0.538147, +24.063110, +39.993286, -71.273804
1491872959.553069, 1491872959.555491, -0.571472, +1.285767, -0.365662, +17.837524, +39.993286, -71.273804
1491872959.555765, 1491872959.558187, -0.597656, +1.285767, -0.365662, +17.837524, +18.554688, -69.046021
1491872959.558460, 1491872959.560895, -0.597656, +1.285767, -0.365662, +11.291504, +18.554688, -69.046021
1491872959.561169, 1491872959.563589, -0.597656, +1.285767, -0.365662, +11.291504, +6.744385, -67.260742
1491872959.563858, 1491872959.566278, -0.377197, +1.146423, -0.188965, +7.888794, +6.744385, -67.260742
1491872959.566546, 1491872959.568963, -0.377197, +1.146423, -0.188965, +6.622314, -1.876831, -62.789917
1491872959.569233, 1491872959.571689, -0.377197, +1.146423, -0.188965, +6.622314, -1.876831, -62.789917
1491872959.572065, 1491872959.574491, -0.377197, +1.146423, -0.188965, +4.638672, -10.116577, -59.051514
1491872959.574762, 1491872959.577178, -0.176514, +0.980347, -0.235474, +4.638672, -10.116577, -59.051514
1491872959.577448, 1491872959.579869, -0.176514, +0.980347, -0.235474, +2.670288, -17.471313, -56.365967
1491872959.580151, 1491872959.582441, -0.176514, +0.980347, -0.235474, +2.670288, -17.471313, -56.365967
1491872959.582707, 1491872959.585001, -0.176514, +0.980347, -0.238770, +2.090454, -23.620605, -54.092407
1491872959.585267, 1491872959.587567, -0.165894, +0.975769, -0.238770, +2.090454, -23.620605, -54.092407
1491872959.587831, 1491872959.590149, -0.165894, +0.975769, -0.238770, +1.251221, -29.129028, -51.666260
1491872959.590421, 1491872959.592839, -0.165894, +0.975769, -0.238770, +1.251221, -29.129028, -51.666260
1491872959.593111, 1491872959.595541, -0.165894, +1.022644, -0.238403, +0.473022, -34.286499, -48.782349
1491872959.595812, 1491872959.598233, -0.068115, +0.996460, -0.238403, +0.473022, -34.286499, -48.782349
1491872959.598505, 1491872959.600942, -0.068115, +0.996460, -0.238403, -0.961304, -36.819458, -47.363281
1491872959.601214, 1491872959.603636, -0.068115, +0.996460, -0.238403, -0.961304, -36.819458, -47.363281
1491872959.603906, 1491872959.606326, +0.034973, +1.010193, -0.188782, -2.487183, -36.376953, -46.295166
1491872959.606598, 1491872959.609020, +0.034973, +1.010193, -0.188782, -2.487183, -36.376953, -46.295166
1491872959.609291, 1491872959.611715, +0.034973, +1.010193, -0.188782, -2.838135, -31.921387, -45.181274
1491872959.611985, 1491872959.614403, +0.034973, +1.010193, -0.188782, -2.838135, -31.921387, -45.181274
1491872959.614674, 1491872959.617096, +0.090088, +1.066040, -0.191162, -3.524780, -25.909424, -45.578003
1491872959.617367, 1491872959.619788, +0.090088, +1.066040, -0.191162, -3.524780, -25.909424, -45.578003
1491872959.620069, 1491872959.622587, +0.090088, +1.066040, -0.191162, -5.172729, -20.706177, -47.531128
1491872959.622859, 1491872959.625263, +0.090088, +1.066040, -0.191162, -5.172729, -20.706177, -47.531128
1491872959.625533, 1491872959.627932, +0.076172, +1.057800, -0.205078, -5.554199, -14.785767, -48.522949
1491872959.628202, 1491872959.630637, +0.076172, +1.057800, -0.205078, -5.554199, -14.785767, -48.522949
1491872959.630901, 1491872959.633200, +0.076172, +1.057800, -0.205078, -3.845215, -8.361816, -49.011230
1491872959.633461, 1491872959.635756, +0.076172, +1.057800, -0.193542, -3.845215, -8.361816, -49.011230
1491872959.636016, 1491872959.638315, +0.137329, +1.040039, -0.193542, -2.044678, -2.044678, -49.377441
1491872959.638574, 1491872959.640904, +0.137329, +1.040039, -0.193542, -2.044678, -2.044678, -49.377441
1491872959.641163, 1491872959.643460, +0.137329, +1.040039, -0.193542, -1.312256, +2.624512, -50.933838
1491872959.643720, 1491872959.646008, +0.137329, +1.040039, -0.209473, -1.312256, +2.624512, -50.933838
1491872959.646268, 1491872959.648558, +0.029297, +1.016968, -0.209473, -1.358032, +4.653931, -51.559448
1491872959.648820, 1491872959.651206, +0.029297, +1.016968, -0.209473, -1.358032, +4.653931, -51.559448
1491872959.651476, 1491872959.653898, +0.029297, +1.016968, -0.209473, -1.159668, +2.578735, -50.506592
1491872959.654167, 1491872959.656585, +0.029297, +0.999207, -0.239319, -1.159668, +2.578735, -50.506592
1491872959.656854, 1491872959.659280, -0.144836, +0.999207, -0.239319, -0.946045, -1.129150, -48.492432
1491872959.659548, 1491872959.661975, -0.144836, +0.999207, -0.239319, -0.946045, -1.129150, -48.492432
1491872959.662243, 1491872959.664671, -0.144836, +0.999207, -0.239319, -1.235962, -4.348755, -46.539307
1491872959.664942, 1491872959.667357, -0.105652, +0.992981, -0.234741, -1.235962, -4.348755, -46.539307
1491872959.667626, 1491872959.670080, -0.105652, +0.992981, -0.234741, -1.388550, -4.837036, -45.089722
1491872959.670348, 1491872959.672773, -0.105652, +0.992981, -0.234741, -1.388550, -4.837036, -45.089722
1491872959.673041, 1491872959.675462, -0.105652, +0.992981, -0.234741, -1.922607, -3.814697, -43.457031
1491872959.675838, 1491872959.678258, -0.032410, +0.997375, -0.254333, -1.922607, -3.814697, -43.457031
1491872959.678530, 1491872959.680966, -0.032410, +0.997375, -0.254333, -2.319336, -2.304077, -42.480469
1491872959.681234, 1491872959.683651, -0.032410, +0.997375, -0.254333, -2.319336, -2.304077, -42.480469
1491872959.683921, 1491872959.686345, -0.032410, +0.997375, -0.254333, -3.128052, -0.961304, -40.908813
1491872959.686613, 1491872959.689035, -0.059509, +1.044983, -0.243530, -3.128052, -0.961304, -39.520264
1491872959.689304, 1491872959.691650, -0.059509, +1.044983, -0.243530, -4.135132, -0.549316, -39.520264
1491872959.691910, 1491872959.694206, -0.059509, +1.044983, -0.243530, -4.135132, -0.549316, -35.614014
1491872959.694468, 1491872959.696761, -0.059509, +1.044983, -0.224854, -5.401611, -1.739502, -38.406372
1491872959.697022, 1491872959.699314, -0.134216, +1.053406, -0.224854, -5.401611, -1.739502, -38.406372
1491872959.699574, 1491872959.701997, -0.134216, +1.053406, -0.224854, -6.668091, -4.577637, -37.963867
1491872959.702265, 1491872959.704685, -0.134216, +1.053406, -0.224854, -6.668091, -4.577637, -37.963867
1491872959.704952, 1491872959.707378, -0.134216, +1.054138, -0.246460, -7.034302, -6.881714, -37.033081
1491872959.707644, 1491872959.710095, -0.121399, +1.054138, -0.246460, -7.034302, -6.881714, -37.033081
1491872959.710363, 1491872959.712784, -0.121399, +1.054138, -0.246460, -7.720947, -7.461548, -36.621094
1491872959.713052, 1491872959.715471, -0.121399, +1.054138, -0.246460, -7.720947, -7.461548, -36.239624
1491872959.715739, 1491872959.718159, -0.078186, +1.032715, -0.203796, -8.071899, -7.659912, -36.239624
1491872959.718427, 1491872959.720895, -0.078186, +1.032715, -0.203796, -8.071899, -7.659912, -36.239624
1491872959.721163, 1491872959.723584, -0.078186, +1.032715, -0.203796, -7.949829, -7.659912, -36.239624
1491872959.723852, 1491872959.726272, -0.078186, +1.032715, -0.203796, -7.949829, -11.566162, -35.797119
1491872959.726543, 1491872959.728965, -0.108032, +1.019165, -0.190063, -7.537842, -8.407593, -35.797119
1491872959.729235, 1491872959.731701, -0.108032, +1.019165, -0.190063, -7.537842, -8.300781, -35.797119
1491872959.731969, 1491872959.734387, -0.108032, +1.019165, -0.190063, -7.232666, -8.300781, -35.797119
1491872959.734655, 1491872959.737080, -0.108032, +1.019165, -0.143188, -7.232666, -7.797241, -35.018921
1491872959.737348, 1491872959.739764, -0.105652, +1.022095, -0.166077, -7.186890, -7.797241, -35.018921
1491872959.740034, 1491872959.742370, -0.105652, +1.022095, -0.166077, -7.186890, -6.469727, -34.500122
1491872959.742634, 1491872959.744930, -0.105652, +1.022095, -0.166077, -7.125854, -6.469727, -34.500122
1491872959.745190, 1491872959.747482, -0.105652, +1.068970, -0.178711, -7.125854, -5.096436, -34.606934
1491872959.747743, 1491872959.750037, -0.077454, +1.045532, -0.178711, -6.546021, -5.096436, -34.606934
1491872959.750352, 1491872959.752773, -0.077454, +1.045532, -0.178711, -6.546021, -3.570557, -34.347534
1491872959.753042, 1491872959.755462, -0.077454, +1.045532, -0.178711, -6.759644, -3.570557, -34.347534
1491872959.755730, 1491872959.758149, -0.077454, +1.047913, -0.184204, -6.759644, -2.151489, -34.118652
1491872959.758418, 1491872959.760885, -0.080383, +1.047913, -0.184204, -6.744385, -2.151489, -34.118652
1491872959.761153, 1491872959.763576, -0.080383, +1.047913, -0.184204, -6.835938, -1.113892, -33.142090
1491872959.763844, 1491872959.766272, -0.080383, +1.047913, -0.184204, -6.835938, -1.113892, -33.142090
1491872959.766540, 1491872959.768957, -0.122131, +1.022827, -0.200684, -6.652832, -0.793457, -33.874512
1491872959.769226, 1491872959.771692, -0.122131, +1.022827, -0.200684, -6.652832, -0.793457, -33.874512
1491872959.771962, 1491872959.774380, -0.122131, +1.022827, -0.200684, -6.744385, -1.281738, -33.370972
1491872959.774648, 1491872959.777071, -0.122131, +1.022827, -0.200684, -6.744385, -1.281738, -33.370972
1491872959.777339, 1491872959.779765, -0.130188, +1.012390, -0.205078, -6.454468, -1.785278, -32.058716
1491872959.780031, 1491872959.782433, -0.130188, +1.012390, -0.205078, -6.454468, -1.785278, -32.058716
1491872959.782807, 1491872959.785102, -0.130188, +1.012390, -0.205078, -5.996704, -1.617432, -31.265259
1491872959.785362, 1491872959.787664, -0.130188, +1.012390, -0.205078, -5.996704, -1.617432, -31.265259
1491872959.787925, 1491872959.790233, -0.171753, +0.993347, -0.198853, -5.462646, -1.815796, -31.082153
1491872959.790502, 1491872959.792924, -0.171753, +0.993347, -0.198853, -5.462646, -1.815796, -31.082153
1491872959.793194, 1491872959.795610, -0.171753, +0.993347, -0.198853, -4.699707, -2.548218, -30.471802
1491872959.795879, 1491872959.798297, -0.171753, +0.993347, -0.181641, -4.699707, -2.548218, -30.471802
1491872959.798564, 1491872959.801004, -0.187500, +0.998840, -0.181641, -4.745483, -2.990723, -30.258179
1491872959.801273, 1491872959.803694, -0.187500, +0.998840, -0.181641, -4.745483, -2.990723, -30.258179
1491872959.803962, 1491872959.806376, -0.187500, +0.998840, -0.181641, -4.989624, -3.143311, -30.044556
1491872959.806644, 1491872959.809069, -0.140442, +1.019348, -0.199219, -4.989624, -3.143311, -30.044556
1491872959.809336, 1491872959.811769, -0.140442, +1.019348, -0.199219, -5.218506, -2.624512, -30.181885
1491872959.812035, 1491872959.814459, -0.140442, +1.019348, -0.199219, -5.218506, -2.624512, -30.181885
1491872959.814726, 1491872959.817149, -0.140442, +1.019348, -0.199219, -6.195068, -2.395630, -30.090332
1491872959.817419, 1491872959.819836, -0.139893, +1.020264, -0.203247, -6.195068, -2.395630, -30.090332
1491872959.820114, 1491872959.822538, -0.139893, +1.020264, -0.203247, -6.683350, -1.831055, -29.876709
1491872959.822806, 1491872959.825224, -0.139893, +1.020264, -0.203247, -6.683350, -1.831055, -29.876709
1491872959.825490, 1491872959.827906, -0.139893, +1.020264, -0.203247, -6.973267, -1.693726, -30.059814
1491872959.828173, 1491872959.830586, -0.147583, +1.025574, -0.195007, -6.973267, -1.693726, -30.059814
1491872959.830847, 1491872959.833146, -0.147583, +1.025574, -0.195007, -7.522583, -1.724243, -30.822754
1491872959.833409, 1491872959.835704, -0.147583, +1.025574, -0.195007, -7.522583, -1.724243, -30.822754
1491872959.835966, 1491872959.838257, -0.147583, +1.025574, -0.148132, -7.858276, -1.907349, -31.600952
1491872959.838518, 1491872959.840900, -0.121216, +1.009644, -0.185852, -7.858276, -1.907349, -31.600952
1491872959.841169, 1491872959.843595, -0.121216, +1.009644, -0.185852, -8.224487, -1.754761, -32.653809
1491872959.843865, 1491872959.846285, -0.121216, +1.009644, -0.185852, -8.224487, -1.754761, -32.653809
1491872959.846552, 1491872959.848969, -0.121216, +1.009644, -0.234558, -8.605957, -1.098633, -33.752441
1491872959.849238, 1491872959.851706, -0.088623, +1.027039, -0.234558, -8.605957, -1.098633, -33.752441
1491872959.851975, 1491872959.854392, -0.088623, +1.027039, -0.234558, -9.719849, -0.335693, -35.018921
1491872959.854660, 1491872959.857083, -0.088623, +1.027039, -0.234558, -9.719849, -0.335693, -35.018921
1491872959.857353, 1491872959.859772, -0.134216, +1.035461, -0.273376, -10.650635, -0.167847, -35.491943
1491872959.860080, 1491872959.862498, -0.134216, +1.035461, -0.273376, -10.650635, -0.167847, -35.491943
1491872959.862768, 1491872959.865195, -0.134216, +1.035461, -0.273376, -11.688232, -1.724243, -35.614014
1491872959.865468, 1491872959.867888, -0.134216, +1.035461, -0.273376, -11.688232, -1.724243, -36.544800
1491872959.868160, 1491872959.870596, -0.185120, +1.023743, -0.251770, -11.840820, -1.968384, -36.544800
1491872959.870869, 1491872959.873293, -0.185120, +1.023743, -0.251770, -11.840820, -1.968384, -36.666870
1491872959.873563, 1491872959.875982, -0.185120, +1.023743, -0.251770, -11.932373, -3.799438, -36.666870
1491872959.876252, 1491872959.878677, -0.185120, +1.023743, -0.251770, -11.932373, -7.705688, -37.384033
1491872959.878949, 1491872959.881317, -0.238770, +1.008179, -0.194458, -12.298584, -5.737305, -37.384033
1491872959.881581, 1491872959.883875, -0.238770, +1.008179, -0.194458, -12.298584, -5.737305, -36.926270
1491872959.884139, 1491872959.886435, -0.238770, +1.008179, -0.194458, -11.749268, -8.041382, -36.926270
1491872959.886806, 1491872959.889102, -0.238770, +1.008179, -0.147583, -11.749268, -8.041382, -36.819458
1491872959.889366, 1491872959.891674, -0.241333, +1.005249, -0.150146, -11.199951, -10.406494, -36.819458
1491872959.891941, 1491872959.894240, -0.241333, +1.005249, -0.150146, -11.199951, -10.406494, -36.560059
1491872959.894507, 1491872959.896799, -0.241333, +1.005249, -0.150146, -10.650635, -12.405396, -36.560059
1491872959.897064, 1491872959.899362, -0.241333, +1.005249, -0.155823, -10.650635, -12.405396, -36.560059
1491872959.899628, 1491872959.902043, -0.200317, +1.012939, -0.155823, -10.162354, -12.985229, -36.254883
1491872959.902316, 1491872959.904739, -0.200317, +1.012939, -0.155823, -10.162354, -12.985229, -36.209106
1491872959.905012, 1491872959.907438, -0.200317, +1.012939, -0.155823, -9.231567, -13.229370, -36.209106
1491872959.907709, 1491872959.910136, -0.200317, +1.021179, -0.142273, -9.231567, -13.229370, -36.682129
1491872959.910408, 1491872959.912828, -0.191345, +1.021179, -0.142273, -8.834839, -12.741089, -36.682129
1491872959.913098, 1491872959.915522, -0.191345, +1.021179, -0.142273, -8.834839, -12.741089, -36.834717
1491872959.915794, 1491872959.918212, -0.191345, +1.021179, -0.142273, -8.941650, -12.680054, -36.834717
1491872959.918483, 1491872959.920923, -0.218262, +1.037659, -0.144653, -8.941650, -12.680054, -36.941528
1491872959.921195, 1491872959.923613, -0.218262, +1.037659, -0.144653, -8.911133, -12.939453, -36.941528
1491872959.923885, 1491872959.926305, -0.218262, +1.037659, -0.144653, -8.911133, -12.542725, -37.109375
1491872959.926576, 1491872959.928998, -0.218262, +1.037659, -0.144653, -7.766724, -12.542725, -37.109375
1491872959.929269, 1491872959.931697, -0.180542, +1.020447, -0.164795, -7.766724, -10.879517, -36.560059
1491872959.931968, 1491872959.934387, -0.180542, +1.020447, -0.164795, -7.431030, -10.879517, -36.560059
1491872959.934657, 1491872959.937083, -0.180542, +1.020447, -0.164795, -7.644653, -8.819580, -35.888672
1491872959.937352, 1491872959.939767, -0.180542, +1.020447, -0.164795, -7.644653, -8.819580, -35.888672
1491872959.940034, 1491872959.942371, -0.225769, +1.024841, -0.170471, -7.766724, -7.553101, -35.858154
1491872959.942632, 1491872959.944923, -0.225769, +1.024841, -0.170471, -7.766724, -7.553101, -35.858154
1491872959.945182, 1491872959.947475, -0.225769, +1.024841, -0.170471, -7.766724, -7.629395, -35.964966
1491872959.947736, 1491872959.950032, -0.225769, +1.024841, -0.156738, -7.659912, -7.629395, -35.964966
1491872959.950352, 1491872959.952772, -0.266602, +1.012573, -0.156738, -7.659912, -8.453369, -35.217285
1491872959.953040, 1491872959.955458, -0.266602, +1.012573, -0.156738, -6.683350, -8.453369, -35.217285
1491872959.955724, 1491872959.958145, -0.266602, +1.012573, -0.156738, -5.981445, -8.483887, -34.591675
1491872959.958411, 1491872959.960831, -0.266602, +1.020813, -0.160767, -5.981445, -8.483887, -34.591675
1491872959.961099, 1491872959.963522, -0.267517, +1.020813, -0.160767, -6.149292, -8.621216, -34.393311
1491872959.963792, 1491872959.966212, -0.267517, +1.020813, -0.160767, -6.149292, -8.621216, -34.393311
1491872959.966479, 1491872959.968899, -0.267517, +1.020813, -0.160767, -5.645752, -9.521484, -34.164429
1491872959.969166, 1491872959.971604, -0.277039, +1.020081, -0.176514, -5.645752, -9.521484, -34.164429
1491872959.971872, 1491872959.974289, -0.277039, +1.020081, -0.176514, -5.325317, -10.360718, -34.347534
1491872959.974560, 1491872959.976975, -0.277039, +1.020081, -0.176514, -5.325317, -10.360718, -34.347534
1491872959.977246, 1491872959.979664, -0.277039, +1.020081, -0.176514, -4.714966, -10.910034, -34.423828
1491872959.979935, 1491872959.982251, -0.276306, +1.017883, -0.181091, -4.714966, -10.910034, -34.423828
1491872959.982515, 1491872959.984813, -0.276306, +1.017883, -0.181091, -4.409790, -11.550903, -34.439087
1491872959.985076, 1491872959.987369, -0.276306, +1.017883, -0.181091, -4.409790, -11.550903, -34.439087
1491872959.987632, 1491872959.989928, -0.276306, +1.017883, -0.181091, -4.318237, -11.886597, -34.591675
1491872959.990373, 1491872959.992803, -0.303040, +1.025024, -0.158752, -4.318237, -11.886597, -34.591675
1491872959.993073, 1491872959.995496, -0.303040, +1.025024, -0.158752, -4.119873, -13.046265, -34.454346
1491872959.995769, 1491872959.998190, -0.303040, +1.025024, -0.158752, -4.119873, -13.046265, -34.454346
1491872959.998460, 1491872960.000906, -0.303040, +1.025024, -0.166992, -4.196167, -14.495850, -34.027100
1491872960.001177, 1491872960.003596, -0.276306, +1.000122, -0.166992, -4.196167, -14.495850, -34.027100
1491872960.003866, 1491872960.006290, -0.276306, +1.000122, -0.166992, -3.646851, -14.739990, -33.523560
1491872960.006560, 1491872960.008978, -0.276306, +1.000122, -0.166992, -3.646851, -14.739990, -33.523560
1491872960.009251, 1491872960.011715, -0.323181, +1.007629, -0.202332, -3.280640, -14.114380, -33.447266
1491872960.011988, 1491872960.014408, -0.288025, +1.007629, -0.202332, -3.280640, -14.114380, -33.447266
1491872960.014679, 1491872960.017094, -0.288025, +1.007629, -0.202332, -3.295898, -13.793945, -33.584595
1491872960.017364, 1491872960.019786, -0.288025, +1.007629, -0.202332, -3.295898, -13.793945, -33.584595
1491872960.020090, 1491872960.022410, -0.323547, +1.032166, -0.150513, -2.990723, -14.434814, -34.011841
1491872960.022675, 1491872960.024971, -0.323547, +1.032166, -0.150513, -2.990723, -14.434814, -34.011841
1491872960.025236, 1491872960.027531, -0.323547, +1.032166, -0.150513, -2.441406, -15.838623, -34.194946
1491872960.027794, 1491872960.030121, -0.323547, +1.032166, -0.150513, -2.441406, -15.838623, -34.194946
1491872960.030386, 1491872960.032676, -0.315857, +1.036560, -0.148499, -1.846313, -17.089844, -34.271240
1491872960.032939, 1491872960.035234, -0.315857, +1.036560, -0.148499, -1.846313, -17.089844, -34.271240
1491872960.035497, 1491872960.037789, -0.315857, +1.036560, -0.148499, -1.510620, -19.027710, -34.790039
1491872960.038052, 1491872960.040374, -0.315857, +1.036560, -0.148499, -1.510620, -19.027710, -34.790039
1491872960.040646, 1491872960.043073, -0.337463, +1.030518, -0.166992, -0.305176, -21.072388, -35.369873
1491872960.043344, 1491872960.045769, -0.337463, +1.030518, -0.166992, -0.305176, -21.072388, -35.369873
1491872960.046039, 1491872960.048463, -0.337463, +1.030518, -0.166992, +0.793457, -23.269653, -35.598755
1491872960.048734, 1491872960.051166, -0.337463, +1.030518, -0.166992, +0.793457, -23.269653, -35.598755
1491872960.051438, 1491872960.053857, -0.335632, +1.053589, -0.193726, +1.327515, -25.222778, -35.598755
1491872960.054127, 1491872960.056548, -0.335632, +1.053589, -0.193726, +1.327515, -25.222778, -35.598755
1491872960.056817, 1491872960.059237, -0.335632, +1.053589, -0.193726, +1.220703, -26.382446, -36.773682
1491872960.059507, 1491872960.061934, -0.335632, +1.053589, -0.242981, +1.220703, -26.382446, -36.773682
1491872960.062205, 1491872960.064631, -0.285828, +1.057251, -0.242981, +1.296997, -26.092529, -37.750244
1491872960.064901, 1491872960.067326, -0.285828, +1.057251, -0.242981, +1.296997, -26.092529, -37.750244
1491872960.067597, 1491872960.070022, -0.285828, +1.057251, -0.242981, +0.900269, -26.382446, -38.681030
1491872960.070338, 1491872960.072759, -0.303223, +1.048279, -0.232544, +0.900269, -26.382446, -38.681030
1491872960.073030, 1491872960.075451, -0.303223, +1.048279, -0.232544, +1.068115, -27.511597, -39.367676
1491872960.075722, 1491872960.078141, -0.303223, +1.048279, -0.232544, +1.068115, -27.511597, -39.367676
1491872960.078411, 1491872960.080794, -0.303223, +1.048279, -0.232544, +0.564575, -29.388428, -39.733887
1491872960.081059, 1491872960.083354, -0.320435, +1.111084, -0.146851, +0.564575, -29.388428, -39.733887
1491872960.083618, 1491872960.085912, -0.320435, +1.111084, -0.146851, -0.091553, -31.219482, -40.161133
1491872960.086177, 1491872960.088467, -0.320435, +1.111084, -0.146851, -0.091553, -31.219482, -40.161133
1491872960.088730, 1491872960.091124, -0.320435, +1.111084, -0.146851, -1.312256, -31.173706, -41.229248
1491872960.091395, 1491872960.093814, -0.301392, +1.125732, -0.103638, -1.312256, -31.173706, -41.229248
1491872960.094192, 1491872960.096610, -0.301392, +1.125732, -0.103638, -1.434326, -31.768799, -42.709351
1491872960.096883, 1491872960.099304, -0.301392, +1.125732, -0.103638, -1.434326, -31.768799, -44.357300
1491872960.099574, 1491872960.102005, -0.301392, +1.125732, -0.150513, -1.358032, -32.623291, -44.357300
1491872960.102275, 1491872960.104695, -0.262939, +1.127563, -0.146301, -1.358032, -32.623291, -45.928955
1491872960.104965, 1491872960.107387, -0.262939, +1.127563, -0.146301, -2.304077, -31.936646, -45.928955
1491872960.107657, 1491872960.110089, -0.262939, +1.127563, -0.146301, -2.304077, -31.936646, -46.737671
1491872960.110360, 1491872960.112780, -0.262939, +1.150085, -0.223389, -4.272461, -29.861450, -46.737671
1491872960.113051, 1491872960.115475, -0.259827, +1.150085, -0.223389, -4.272461, -29.861450, -48.156738
1491872960.115747, 1491872960.118160, -0.259827, +1.150085, -0.223389, -6.408691, -27.404785, -48.156738
1491872960.118430, 1491872960.120897, -0.259827, +1.150085, -0.223389, -6.408691, -25.573730, -49.865723
1491872960.121167, 1491872960.123586, -0.305237, +1.117859, -0.229614, -7.797241, -25.573730, -49.865723
1491872960.123856, 1491872960.126274, -0.305237, +1.117859, -0.229614, -7.797241, -25.039673, -51.269531
1491872960.126543, 1491872960.128965, -0.305237, +1.117859, -0.229614, -7.644653, -25.039673, -51.269531
1491872960.129235, 1491872960.131625, -0.305237, +1.117859, -0.229614, -8.880615, -25.665283, -52.078247
1491872960.131890, 1491872960.134190, -0.395142, +1.127747, -0.216980, -8.880615, -25.665283, -52.078247
1491872960.134455, 1491872960.136749, -0.395142, +1.127747, -0.216980, -8.880615, -27.999878, -52.780151
1491872960.137013, 1491872960.139302, -0.395142, +1.127747, -0.216980, -9.811401, -27.999878, -52.780151
1491872960.139567, 1491872960.142064, -0.395142, +1.127747, -0.216980, -9.811401, -29.769897, -53.070068
1491872960.142335, 1491872960.144741, -0.338196, +1.110901, -0.199768, -10.314941, -29.769897, -53.070068
1491872960.145016, 1491872960.147425, -0.338196, +1.110901, -0.199768, -10.314941, -30.624390, -53.604126
1491872960.147698, 1491872960.150119, -0.338196, +1.110901, -0.199768, -11.016846, -30.624390, -53.604126
1491872960.150392, 1491872960.152801, -0.338196, +1.110901, -0.152893, -11.657715, -30.822754, -54.443359
1491872960.153077, 1491872960.155487, -0.364380, +1.115479, -0.163696, -11.657715, -30.822754, -54.443359
1491872960.155760, 1491872960.158166, -0.364380, +1.115479, -0.163696, -12.359619, -31.585693, -55.023193
1491872960.158438, 1491872960.160888, -0.364380, +1.115479, -0.163696, -12.359619, -31.585693, -55.023193
1491872960.161161, 1491872960.163571, -0.364380, +1.114197, -0.142456, -12.466431, -33.584595, -55.084229
1491872960.163844, 1491872960.166253, -0.395874, +1.114197, -0.142456, -12.466431, -33.584595, -55.084229
1491872960.166526, 1491872960.168936, -0.395874, +1.114197, -0.142456, -12.466431, -35.156250, -55.755615
1491872960.169210, 1491872960.171627, -0.395874, +1.114197, -0.142456, -12.466431, -35.156250, -55.755615
1491872960.171899, 1491872960.174305, -0.406677, +1.120422, -0.150879, -12.207031, -36.376953, -56.243896
1491872960.174578, 1491872960.176991, -0.406677, +1.120422, -0.150879, -12.207031, -36.376953, -56.243896
1491872960.177265, 1491872960.179676, -0.406677, +1.120422, -0.150879, -12.496948, -37.048340, -56.457520
1491872960.179949, 1491872960.182364, -0.406677, +1.120422, -0.150879, -12.496948, -37.048340, -56.457520
1491872960.182639, 1491872960.185058, -0.398804, +1.130310, -0.120850, -13.061523, -37.811279, -56.594849
1491872960.185333, 1491872960.187746, -0.398804, +1.130310, -0.120850, -13.061523, -37.811279, -56.594849
1491872960.188019, 1491872960.190492, -0.398804, +1.130310, -0.120850, -13.046265, -38.436890, -57.083130
1491872960.190766, 1491872960.193192, -0.398804, +1.130310, -0.120850, -13.046265, -38.436890, -57.083130
1491872960.193468, 1491872960.195883, -0.403198, +1.129395, -0.106567, -13.992310, -38.726807, -57.327271
1491872960.196159, 1491872960.198582, -0.403198, +1.129395, -0.106567, -13.992310, -38.726807, -57.327271
1491872960.198964, 1491872960.201394, -0.403198, +1.129395, -0.106567, -14.480591, -38.665771, -57.250977
1491872960.201668, 1491872960.204081, -0.403198, +1.128479, -0.100159, -14.480591, -38.665771, -57.250977
1491872960.204355, 1491872960.206772, -0.396423, +1.128479, -0.100159, -15.502930, -39.535522, -57.800293
1491872960.207048, 1491872960.209461, -0.396423, +1.128479, -0.100159, -15.502930, -39.535522, -57.800293
1491872960.209735, 1491872960.212165, -0.396423, +1.128479, -0.100159, -16.510010, -39.779663, -58.410645
1491872960.212440, 1491872960.214864, -0.372437, +1.163452, -0.087524, -16.510010, -39.779663, -62.316895
1491872960.215138, 1491872960.217555, -0.372437, +1.163452, -0.087524, -17.715454, -39.947510, -59.143066
1491872960.217829, 1491872960.220293, -0.372437, +1.163452, -0.087524, -17.715454, -39.947510, -59.906006
1491872960.220567, 1491872960.222981, -0.372437, +1.163452, -0.087524, -19.943237, -39.016724, -59.906006
1491872960.223254, 1491872960.225672, -0.322815, +1.232849, -0.085510, -19.943237, -39.016724, -60.440063
1491872960.225946, 1491872960.228368, -0.322815, +1.232849, -0.085510, -22.171021, -36.941528, -60.440063
1491872960.228641, 1491872960.231048, -0.322815, +1.232849, -0.085510, -22.171021, -36.941528, -60.882568
1491872960.231315, 1491872960.233604, -0.322815, +1.232849, -0.085510, -23.803711, -35.720825, -60.882568
1491872960.233869, 1491872960.236167, -0.276672, +1.304993, -0.133118, -23.803711, -35.720825, -61.798096
1491872960.236432, 1491872960.238729, -0.276672, +1.304993, -0.133118, -25.375366, -34.286499, -61.798096
1491872960.238996, 1491872960.241440, -0.276672, +1.304993, -0.133118, -25.375366, -34.286499, -63.796997
1491872960.241712, 1491872960.244117, -0.276672, +1.304993, -0.139893, -27.511597, -33.782959, -63.796997
1491872960.244389, 1491872960.246791, -0.278503, +1.351868, -0.139893, -27.511597, -33.782959, -66.162109
1491872960.247064, 1491872960.249476, -0.278503, +1.351868, -0.139893, -27.908325, -34.759521, -66.162109
1491872960.249748, 1491872960.252202, -0.278503, +1.351868, -0.139893, -27.908325, -38.665771, -68.283081
1491872960.252478, 1491872960.254897, -0.278503, +1.413574, -0.147949, -28.442383, -37.017822, -68.283081
1491872960.255170, 1491872960.257594, -0.251038, +1.413574, -0.147949, -28.442383, -38.955688, -70.709229
1491872960.257867, 1491872960.260299, -0.251038, +1.413574, -0.147949, -29.586792, -38.955688, -70.709229
1491872960.260572, 1491872960.262999, -0.251038, +1.413574, -0.147949, -29.586792, -41.549683, -73.577881
1491872960.263272, 1491872960.265692, -0.193176, +1.458801, -0.136963, -30.227661, -41.549683, -73.577881
1491872960.265965, 1491872960.268380, -0.193176, +1.458801, -0.136963, -30.227661, -44.631958, -77.423096
1491872960.268654, 1491872960.271040, -0.193176, +1.458801, -0.136963, -30.960083, -44.631958, -77.423096
1491872960.271306, 1491872960.273601, -0.193176, +1.458801, -0.136963, -34.866333, -46.493530, -80.718994
1491872960.273865, 1491872960.276157, -0.097412, +1.484802, -0.127991, -32.257080, -46.493530, -80.718994
1491872960.276424, 1491872960.278726, -0.097412, +1.484802, -0.127991, -32.257080, -48.675537, -84.564209
1491872960.278992, 1491872960.281472, -0.097412, +1.484802, -0.127991, -34.057617, -48.675537, -84.564209
1491872960.281746, 1491872960.284155, -0.097412, +1.484802, -0.127991, -37.963867, -49.011230, -89.172363
1491872960.284429, 1491872960.286831, -0.030945, +1.519409, -0.134949, -36.117554, -49.011230, -89.172363
1491872960.287105, 1491872960.289507, -0.030945, +1.519409, -0.134949, -37.643433, -49.102783, -93.292236
1491872960.289780, 1491872960.292208, -0.030945, +1.519409, -0.134949, -37.643433, -49.102783, -93.292236
1491872960.292481, 1491872960.294902, -0.030945, +1.519409, -0.146667, -39.672852, -49.728394, -96.603394
1491872960.295175, 1491872960.297591, -0.010620, +1.548523, -0.146667, -39.672852, -49.728394, -96.603394
1491872960.297866, 1491872960.300301, -0.010620, +1.548523, -0.146667, -41.213989, -50.201416, -99.288940
1491872960.300576, 1491872960.302992, -0.010620, +1.548523, -0.146667, -41.213989, -50.201416, -99.288940
1491872960.303371, 1491872960.305795, +0.036255, +1.540100, -0.150513, -43.167114, -52.337646, -103.515625
1491872960.306070, 1491872960.308492, +0.008789, +1.540100, -0.150513, -43.167114, -52.337646, -103.515625
1491872960.308766, 1491872960.311194, +0.008789, +1.540100, -0.150513, -44.647217, -53.833008, -107.315063
1491872960.311471, 1491872960.313891, +0.008789, +1.540100, -0.150513, -44.647217, -53.833008, -107.315063
1491872960.314166, 1491872960.316585, +0.083496, +1.514465, -0.173950, -45.516968, -54.412842, -109.970093
1491872960.316859, 1491872960.319277, +0.083496, +1.514465, -0.173950, -45.516968, -54.412842, -109.970093
1491872960.319550, 1491872960.321991, +0.083496, +1.514465, -0.173950, -46.020508, -53.726196, -114.654541
1491872960.322265, 1491872960.324684, +0.083496, +1.514465, -0.173950, -46.020508, -53.726196, -114.654541
1491872960.324961, 1491872960.327385, -0.050171, +1.467773, -0.173950, -46.096802, -51.986694, -118.240356
1491872960.327659, 1491872960.330083, -0.050171, +1.467773, -0.173950, -46.096802, -51.986694, -118.240356
1491872960.330349, 1491872960.332644, -0.050171, +1.467773, -0.173950, -46.188354, -52.093506, -121.582031
1491872960.332910, 1491872960.335206, -0.050171, +1.467773, -0.173950, -46.188354, -52.093506, -121.582031
1491872960.335471, 1491872960.337762, -0.200134, +1.451843, -0.154541, -45.150757, -54.489136, -122.619629
1491872960.338029, 1491872960.340336, -0.200134, +1.451843, -0.154541, -45.150757, -54.489136, -122.619629
1491872960.340610, 1491872960.343033, -0.200134, +1.451843, -0.154541, -44.174194, -58.349609, -123.260498
1491872960.343307, 1491872960.345726, -0.200134, +1.451843, -0.053833, -44.174194, -58.349609, -123.260498
1491872960.346001, 1491872960.348424, -0.516724, +1.675232, -0.053833, -47.409058, -65.093994, -121.520996
1491872960.348698, 1491872960.351127, -0.516724, +1.675232, -0.053833, -47.409058, -65.093994, -121.520996
1491872960.351401, 1491872960.353822, -0.516724, +1.675232, -0.053833, -48.904419, -70.205688, -119.140625
1491872960.354095, 1491872960.356519, -0.329224, +1.462097, -0.141907, -48.904419, -70.205688, -119.140625
1491872960.356794, 1491872960.359212, -0.359436, +1.462097, -0.141907, -47.424316, -63.644409, -121.536255
1491872960.359484, 1491872960.361916, -0.359436, +1.462097, -0.141907, -47.424316, -63.644409, -121.536255
1491872960.362189, 1491872960.364611, -0.359436, +1.462097, -0.141907, -47.164917, -53.817749, -120.635986
1491872960.364883, 1491872960.367308, -0.284180, +1.557312, -0.186951, -47.164917, -53.817749, -120.635986
1491872960.367581, 1491872960.370004, -0.284180, +1.557312, -0.186951, -46.951294, -43.167114, -120.025635
1491872960.370330, 1491872960.372749, -0.284180, +1.557312, -0.186951, -46.951294, -43.167114, -123.931885
1491872960.373022, 1491872960.375439, -0.284180, +1.557312, -0.186951, -45.898438, -28.518677, -122.711182
1491872960.375713, 1491872960.378133, -0.249207, +1.505493, -0.318970, -45.898438, -28.518677, -129.028320
1491872960.378405, 1491872960.380795, -0.249207, +1.505493, -0.318970, -45.593262, -11.688232, -129.028320
1491872960.381061, 1491872960.383357, -0.249207, +1.505493, -0.318970, -45.593262, -11.688232, -133.544922
1491872960.383622, 1491872960.385923, -0.249207, +1.505493, -0.272095, -47.683716, +0.869751, -133.544922
1491872960.386188, 1491872960.388489, -0.371155, +1.432983, -0.270630, -47.683716, +0.869751, -133.544922
1491872960.388754, 1491872960.391162, -0.371155, +1.432983, -0.270630, -50.659180, +12.634277, -135.620117
1491872960.391436, 1491872960.393854, -0.371155, +1.432983, -0.270630, -50.659180, +12.634277, -134.384155
1491872960.394126, 1491872960.396546, -0.371155, +1.339233, -0.298279, -52.078247, +22.933960, -134.384155
1491872960.396819, 1491872960.399242, -0.288025, +1.337219, -0.298279, -52.078247, +22.933960, -129.577637
1491872960.399516, 1491872960.401936, -0.288025, +1.337219, -0.298279, -50.521851, +35.003662, -129.577637
1491872960.402211, 1491872960.404628, -0.288025, +1.337219, -0.298279, -50.521851, +50.628662, -123.596191
1491872960.405008, 1491872960.407432, -0.006775, +1.281921, -0.363647, -47.073364, +50.369263, -123.596191
1491872960.407706, 1491872960.410130, -0.006775, +1.281921, -0.363647, -47.073364, +59.295654, -115.661621
1491872960.410406, 1491872960.412832, -0.006775, +1.281921, -0.363647, -45.394897, +59.295654, -115.661621
1491872960.413107, 1491872960.415524, -0.006775, +1.281921, -0.363647, -45.394897, +53.329468, -108.154297
1491872960.415799, 1491872960.418220, +0.032959, +0.980164, -0.286926, -45.623779, +53.329468, -108.154297
1491872960.418493, 1491872960.420927, +0.032959, +0.980164, -0.286926, -45.623779, +39.215088, -100.723267
1491872960.421203, 1491872960.423624, +0.032959, +0.980164, -0.286926, -44.403076, +39.215088, -100.723267
1491872960.423898, 1491872960.426314, +0.032959, +0.980164, -0.286926, -40.771484, +26.275635, -92.407227
1491872960.426590, 1491872960.429008, -0.035156, +0.680237, -0.207092, -40.771484, +26.275635, -92.407227
1491872960.429285, 1491872960.431633, -0.035156, +0.680237, -0.207092, -35.720825, +20.309448, -84.808350
1491872960.431900, 1491872960.434198, -0.035156, +0.680237, -0.207092, -35.720825, +20.309448, -84.808350
1491872960.434464, 1491872960.436756, -0.035156, +0.680237, -0.233826, -28.549194, +22.033691, -77.514648
1491872960.437022, 1491872960.439315, -0.072876, +0.496948, -0.233826, -28.549194, +22.033691, -77.514648
1491872960.439580, 1491872960.441989, -0.072876, +0.496948, -0.233826, -20.736694, +15.655518, -68.344116
1491872960.442263, 1491872960.444684, -0.072876, +0.496948, -0.233826, -22.842407, +15.655518, -68.344116
1491872960.444958, 1491872960.447380, -0.072876, +0.168823, -0.234741, -14.587402, -13.442993, -58.975220
1491872960.447657, 1491872960.450086, -0.689209, +0.173767, -0.234741, -14.587402, -13.442993, -58.975220
1491872960.450361, 1491872960.452783, -0.689209, +0.173767, -0.234741, -8.560181, -45.104980, -55.953979
1491872960.453054, 1491872960.455480, -0.689209, +0.173767, -0.234741, -8.560181, -45.104980, -55.953979
1491872960.455751, 1491872960.458171, -0.929077, +0.376465, -0.196289, -8.987427, -62.438965, -46.493530
1491872960.458442, 1491872960.460903, -0.929077, +0.376465, -0.196289, -8.987427, -62.438965, -46.493530
1491872960.461177, 1491872960.463597, -0.929077, +0.376465, -0.196289, -9.918213, -69.778442, -26.901245
1491872960.463870, 1491872960.466282, -0.929077, +0.376465, -0.196289, -9.918213, -69.778442, -26.901245
1491872960.466555, 1491872960.468971, -0.197021, +0.486328, -0.210754, -6.958008, -75.927734, -7.324219
1491872960.469239, 1491872960.471708, -0.197021, +0.486328, -0.210754, -6.958008, -75.927734, -7.324219
1491872960.471977, 1491872960.474395, -0.197021, +0.486328, -0.210754, -2.288818, -81.039429, +7.629395
1491872960.474663, 1491872960.477083, -0.197021, +0.486328, -0.210754, -2.288818, -81.039429, +7.629395
1491872960.477352, 1491872960.479772, +0.117004, +0.414368, -0.234009, +2.319336, -80.734253, +20.339966
1491872960.480082, 1491872960.482377, +0.117004, +0.414368, -0.234009, +2.319336, -80.734253, +20.339966
1491872960.482642, 1491872960.484942, +0.117004, +0.414368, -0.234009, +4.135132, -76.065063, +32.302856
1491872960.485206, 1491872960.487500, +0.117004, +0.414368, -0.097412, +4.135132, -76.065063, +32.302856
1491872960.487763, 1491872960.490103, +0.150513, +0.444031, -0.097412, +3.158569, -71.075439, +42.816162
1491872960.490377, 1491872960.492802, +0.150513, +0.444031, -0.097412, +3.158569, -71.075439, +42.816162
1491872960.493073, 1491872960.495493, +0.150513, +0.444031, -0.097412, +1.525879, -66.040039, +52.078247
1491872960.495765, 1491872960.498191, +0.150513, +0.422241, +0.028381, +1.525879, -66.040039, +52.078247
1491872960.498462, 1491872960.500899, +0.063904, +0.422241, +0.028381, +0.671387, -60.882568, +60.470581
1491872960.501169, 1491872960.503592, +0.063904, +0.422241, +0.028381, +0.671387, -60.882568, +60.470581
1491872960.503863, 1491872960.506288, +0.063904, +0.422241, +0.028381, +0.885010, -54.702759, +68.557739
1491872960.506559, 1491872960.508976, +0.032959, +0.414001, +0.099976, +0.885010, -54.702759, +68.557739
1491872960.509367, 1491872960.511799, +0.032959, +0.414001, +0.099976, +3.265381, -47.012329, +77.087402
1491872960.512072, 1491872960.514497, +0.032959, +0.414001, +0.099976, +3.265381, -47.012329, +77.087402
1491872960.514768, 1491872960.517188, +0.032959, +0.414001, +0.099976, +7.278442, -38.177490, +85.617065
1491872960.517460, 1491872960.519884, +0.046692, +0.424622, +0.121765, +7.278442, -38.177490, +97.335815
1491872960.520167, 1491872960.522586, +0.046692, +0.424622, +0.121765, +11.245728, -31.188965, +94.696045
1491872960.522861, 1491872960.525282, +0.046692, +0.424622, +0.121765, +11.245728, -31.188965, +102.508545
1491872960.525558, 1491872960.527985, +0.046692, +0.424622, +0.074890, +15.228271, -24.887085, +103.134155
1491872960.528259, 1491872960.530661, +0.060791, +0.304688, +0.051819, +15.228271, -24.887085, +111.633301
1491872960.530929, 1491872960.533222, +0.060791, +0.304688, +0.051819, +19.119263, -20.523071, +111.633301
1491872960.533489, 1491872960.535789, +0.060791, +0.304688, +0.051819, +19.119263, -20.523071, +120.864868
1491872960.536056, 1491872960.538350, +0.060791, +0.304688, +0.013733, +21.942139, -17.593384, +120.864868
1491872960.538618, 1491872960.540919, +0.109497, +0.346802, +0.013733, +21.942139, -17.593384, +132.583618
1491872960.541186, 1491872960.543476, +0.109497, +0.346802, +0.013733, +23.544312, -13.549805, +131.988525
1491872960.543743, 1491872960.546033, +0.109497, +0.346802, +0.013733, +23.544312, -13.549805, +131.988525
1491872960.546300, 1491872960.548599, +0.109497, +0.440552, -0.000366, +25.619507, -5.599976, +141.647339
1491872960.548863, 1491872960.551230, +0.219727, +0.441101, -0.000366, +25.619507, -5.599976, +141.647339
1491872960.551504, 1491872960.553923, +0.219727, +0.441101, -0.000366, +28.701782, +5.645752, +148.803711
1491872960.554195, 1491872960.556620, +0.219727, +0.441101, -0.000366, +28.701782, +5.645752, +148.803711
1491872960.556891, 1491872960.559309, +0.266602, +0.542725, -0.014465, +31.692505, +19.302368, +155.181885
1491872960.559584, 1491872960.562017, +0.265503, +0.542725, -0.014465, +31.692505, +19.302368, +162.994385
1491872960.562290, 1491872960.564704, +0.265503, +0.542725, -0.014465, +33.859253, +33.691406, +160.751343
1491872960.564978, 1491872960.567397, +0.265503, +0.542725, -0.014465, +33.859253, +33.691406, +164.764404
1491872960.567671, 1491872960.570105, +0.165527, +0.636475, -0.006775, +36.132812, +48.553467, +164.764404
1491872960.570380, 1491872960.572803, +0.165527, +0.636475, -0.006775, +36.132812, +48.553467, +168.914795
1491872960.573079, 1491872960.575502, +0.165527, +0.636475, -0.006775, +39.184570, +63.095093, +168.914795
1491872960.575775, 1491872960.578197, +0.165527, +0.636475, -0.006775, +39.184570, +74.813843, +173.019409
1491872960.578472, 1491872960.580905, +0.007324, +0.735168, -0.015381, +41.946411, +76.309204, +173.019409
1491872960.581179, 1491872960.583608, +0.007324, +0.735168, -0.015381, +41.946411, +88.027954, +177.734375
1491872960.583882, 1491872960.586304, +0.007324, +0.735168, -0.015381, +44.052124, +86.303711, +177.734375
1491872960.586581, 1491872960.589002, +0.007324, +0.735168, -0.014648, +44.052124, +94.604492, +183.563232
1491872960.589276, 1491872960.591629, -0.148132, +0.815186, -0.014648, +47.042847, +94.604492, +183.563232
1491872960.591896, 1491872960.594193, -0.148132, +0.815186, -0.014648, +47.042847, +99.655151, +190.567017
1491872960.594460, 1491872960.596758, -0.148132, +0.815186, -0.014648, +47.668457, +99.655151, +190.567017
1491872960.597025, 1491872960.599321, -0.148132, +0.908936, -0.025452, +47.668457, +103.561401, +198.379517
1491872960.599587, 1491872960.601996, -0.299744, +0.926514, -0.025452, +46.875000, +102.035522, +198.379517
1491872960.602271, 1491872960.604690, -0.299744, +0.926514, -0.025452, +46.875000, +98.129272, +207.153320
1491872960.604965, 1491872960.607385, -0.299744, +0.926514, -0.025452, +46.203613, +100.936890, +207.153320
1491872960.607661, 1491872960.610087, -0.346619, +0.987671, -0.036987, +46.203613, +95.336914, +215.225220
1491872960.610469, 1491872960.612897, -0.352295, +0.987671, -0.036987, +45.761108, +95.336914, +215.225220
1491872960.613173, 1491872960.615588, -0.352295, +0.987671, -0.036987, +46.310425, +88.256836, +221.878052
1491872960.615865, 1491872960.618286, -0.352295, +0.987671, -0.036987, +46.310425, +88.256836, +221.878052
1491872960.618562, 1491872960.620996, -0.279053, +1.046082, -0.052002, +48.370361, +82.107544, +227.218628
1491872960.621270, 1491872960.623695, -0.279053, +1.046082, -0.052002, +48.370361, +82.107544, +227.218628
1491872960.623969, 1491872960.626386, -0.279053, +1.046082, -0.052002, +48.889160, +76.248169, +231.674194
1491872960.626660, 1491872960.629081, -0.279053, +1.046082, -0.052002, +48.889160, +76.248169, +231.674194
1491872960.629355, 1491872960.631795, -0.248840, +1.218201, -0.120300, +48.507690, +70.739746, +235.275269
1491872960.632071, 1491872960.634500, -0.248840, +1.218201, -0.120300, +48.507690, +70.739746, +235.275269
1491872960.634776, 1491872960.637189, -0.248840, +1.218201, -0.120300, +47.012329, +64.224243, +238.845825
1491872960.637463, 1491872960.639885, -0.248840, +1.218201, -0.166443, +47.012329, +64.224243, +238.845825
1491872960.640168, 1491872960.642470, -0.296448, +1.374390, -0.166443, +44.891357, +56.503296, +241.439819
1491872960.642736, 1491872960.645028, -0.296448, +1.374390, -0.166443, +44.891357, +56.503296, +241.439819
1491872960.645295, 1491872960.647594, -0.296448, +1.374390, -0.166443, +42.648315, +48.736572, +243.515015
1491872960.647860, 1491872960.650161, -0.296448, +1.421265, -0.165527, +42.648315, +48.736572, +243.515015
1491872960.650427, 1491872960.652720, -0.419495, +1.430420, -0.165527, +41.122437, +41.320801, +245.925903
1491872960.652989, 1491872960.655282, -0.419495, +1.430420, -0.165527, +41.122437, +41.320801, +245.925903
1491872960.655550, 1491872960.657847, -0.419495, +1.430420, -0.165527, +40.161133, +34.881592, +247.558594
1491872960.658113, 1491872960.660432, -0.419495, +1.461548, -0.116638, +40.161133, +34.881592, +247.558594
1491872960.660707, 1491872960.663131, -0.555725, +1.461548, -0.116638, +40.588379, +28.213501, +248.947144
1491872960.663405, 1491872960.665828, -0.555725, +1.461548, -0.116638, +40.588379, +28.213501, +248.947144
1491872960.666102, 1491872960.668530, -0.555725, +1.461548, -0.116638, +41.046143, +21.011353, +251.419067
1491872960.668806, 1491872960.671231, -0.617249, +1.502747, -0.130554, +41.046143, +21.011353, +251.419067
1491872960.671506, 1491872960.673932, -0.617249, +1.502747, -0.130554, +41.793823, +13.595581, +253.845215
1491872960.674208, 1491872960.676631, -0.617249, +1.502747, -0.130554, +41.793823, +13.595581, +253.845215
1491872960.676904, 1491872960.679322, -0.617249, +1.502747, -0.130554, +42.663574, +7.492065, +255.569458
1491872960.679594, 1491872960.682019, -0.532104, +1.561707, -0.145020, +42.663574, +7.492065, +255.569458
1491872960.682291, 1491872960.684716, -0.532104, +1.561707, -0.145020, +44.204712, +4.196167, +255.676270
1491872960.684989, 1491872960.687404, -0.532104, +1.561707, -0.145020, +44.204712, +4.196167, +255.676270
1491872960.687675, 1491872960.690106, -0.532104, +1.561707, -0.145020, +45.883179, +4.272461, +253.936768
1491872960.690378, 1491872960.692796, -0.405212, +1.613159, -0.128357, +45.883179, +4.272461, +253.936768
1491872960.693068, 1491872960.695487, -0.405212, +1.613159, -0.128357, +47.195435, +6.652832, +250.091553
1491872960.695760, 1491872960.698181, -0.405212, +1.613159, -0.128357, +47.195435, +6.652832, +250.091553
1491872960.698452, 1491872960.700843, -0.405212, +1.613159, -0.079834, +48.461914, +11.199951, +245.574951
1491872960.701110, 1491872960.703404, -0.380127, +1.636047, -0.079834, +48.461914, +11.199951, +245.574951
1491872960.703670, 1491872960.705971, -0.380127, +1.636047, -0.079834, +49.148560, +16.845703, +240.722656
1491872960.706238, 1491872960.708533, -0.380127, +1.636047, -0.079834, +49.148560, +16.845703, +240.722656
1491872960.708801, 1491872960.711166, -0.380127, +1.652710, -0.073975, +49.606323, +23.071289, +235.382080
1491872960.711542, 1491872960.713963, -0.399536, +1.652710, -0.073975, +49.606323, +23.071289, +235.382080
1491872960.714239, 1491872960.716659, -0.399536, +1.652710, -0.073975, +51.071167, +29.205322, +230.194092
1491872960.716934, 1491872960.719359, -0.399536, +1.652710, -0.073975, +51.071167, +29.205322, +230.194092
1491872960.719632, 1491872960.722091, -0.374817, +1.627258, -0.116089, +52.505493, +35.598755, +225.463867
1491872960.722367, 1491872960.724783, -0.374817, +1.627258, -0.116089, +52.505493, +35.598755, +225.463867
1491872960.725055, 1491872960.727478, -0.374817, +1.627258, -0.116089, +53.573608, +43.106079, +220.474243
1491872960.727754, 1491872960.730183, -0.374817, +1.627258, -0.116089, +53.573608, +43.106079, +220.474243
1491872960.730457, 1491872960.732882, -0.377930, +1.622131, -0.090271, +54.183960, +50.308228, +215.408325
1491872960.733156, 1491872960.735574, -0.377930, +1.622131, -0.090271, +54.183960, +50.308228, +207.595825
1491872960.735847, 1491872960.738262, -0.377930, +1.622131, -0.090271, +54.656982, +56.838989, +210.083008
1491872960.738538, 1491872960.740973, -0.377930, +1.622131, -0.137146, +54.656982, +56.838989, +205.139160
1491872960.741246, 1491872960.743671, -0.407593, +1.571777, -0.100342, +55.694580, +62.469482, +205.139160
1491872960.743946, 1491872960.746364, -0.407593, +1.571777, -0.100342, +55.694580, +62.469482, +199.920654
1491872960.746637, 1491872960.749066, -0.407593, +1.571777, -0.100342, +57.052612, +66.833496, +199.920654
1491872960.749341, 1491872960.751694, -0.407593, +1.553650, -0.090637, +57.052612, +66.833496, +195.755005
1491872960.751962, 1491872960.754260, -0.467651, +1.553650, -0.090637, +57.373047, +72.463989, +195.755005
1491872960.754528, 1491872960.756826, -0.467651, +1.553650, -0.090637, +57.373047, +72.463989, +191.802979
1491872960.757093, 1491872960.759383, -0.467651, +1.553650, -0.090637, +56.549072, +77.011108, +191.802979
1491872960.759650, 1491872960.761995, -0.467651, +1.528381, -0.054382, +56.549072, +77.011108, +188.354492
1491872960.762261, 1491872960.764555, -0.649841, +1.528381, -0.054382, +54.870605, +77.316284, +188.354492
1491872960.764821, 1491872960.767109, -0.649841, +1.528381, -0.054382, +54.870605, +77.316284, +184.448242
1491872960.767373, 1491872960.769668, -0.649841, +1.528381, -0.054382, +53.436279, +74.111938, +185.379028
1491872960.769933, 1491872960.772363, -0.790466, +1.478394, -0.056763, +53.436279, +74.111938, +181.472778
1491872960.772637, 1491872960.775067, -0.768494, +1.478394, -0.056763, +52.185059, +68.130493, +183.456421
1491872960.775341, 1491872960.777761, -0.768494, +1.478394, -0.056763, +52.185059, +68.130493, +181.854248
1491872960.778035, 1491872960.780499, -0.768494, +1.478394, -0.056763, +50.933838, +60.791016, +181.854248
1491872960.780773, 1491872960.783190, -0.690125, +1.461548, -0.102722, +50.933838, +60.791016, +179.946899
1491872960.783464, 1491872960.785882, -0.690125, +1.461548, -0.102722, +49.987793, +54.977417, +179.946899
1491872960.786155, 1491872960.788572, -0.690125, +1.461548, -0.102722, +49.987793, +51.071167, +176.696777
1491872960.788847, 1491872960.791317, -0.690125, +1.461548, -0.102722, +49.636841, +51.788330, +176.696777
1491872960.791592, 1491872960.794011, -0.482300, +1.429871, -0.145752, +49.636841, +51.788330, +173.004150
1491872960.794286, 1491872960.796711, -0.482300, +1.429871, -0.145752, +50.186157, +51.055908, +173.004150
1491872960.796984, 1491872960.799401, -0.482300, +1.429871, -0.145752, +50.186157, +52.536011, +168.075562
1491872960.799676, 1491872960.802103, -0.482300, +1.429871, -0.136963, +49.530029, +52.536011, +168.075562
1491872960.802377, 1491872960.804802, -0.379211, +1.449280, -0.136963, +49.530029, +55.221558, +162.460327
1491872960.805075, 1491872960.807490, -0.379211, +1.449280, -0.136963, +47.805786, +55.221558, +162.460327
1491872960.807764, 1491872960.810191, -0.379211, +1.449280, -0.136963, +46.188354, +55.557251, +156.387329
1491872960.810458, 1491872960.812752, -0.379211, +1.412292, -0.117371, +46.188354, +55.557251, +156.387329
1491872960.813018, 1491872960.815312, -0.464539, +1.412292, -0.117371, +46.188354, +54.000854, +150.344849
1491872960.815683, 1491872960.817984, -0.464539, +1.412292, -0.117371, +45.181274, +54.000854, +150.344849
1491872960.818251, 1491872960.820583, -0.464539, +1.412292, -0.117371, +45.181274, +51.788330, +145.126343
1491872960.820857, 1491872960.823282, -0.486511, +1.330261, -0.118286, +44.631958, +51.788330, +145.126343
1491872960.823557, 1491872960.825988, -0.486511, +1.330261, -0.118286, +44.906616, +49.575806, +140.014648
1491872960.826262, 1491872960.828682, -0.486511, +1.330261, -0.118286, +44.906616, +49.575806, +140.014648
1491872960.828955, 1491872960.831392, -0.486511, +1.330261, -0.118286, +45.364380, +48.248291, +134.536743
1491872960.831665, 1491872960.834092, -0.466919, +1.287598, -0.095581, +45.364380, +48.248291, +134.536743
1491872960.834365, 1491872960.836784, -0.466919, +1.287598, -0.095581, +45.135498, +48.950195, +128.234863
1491872960.837058, 1491872960.839476, -0.466919, +1.287598, -0.095581, +45.135498, +48.950195, +128.234863
1491872960.839750, 1491872960.842182, -0.466919, +1.287598, -0.095581, +44.250488, +51.208496, +121.597290
1491872960.842457, 1491872960.844875, -0.550964, +1.246582, -0.064270, +44.250488, +51.208496, +121.597290
1491872960.845150, 1491872960.847574, -0.550964, +1.246582, -0.064270, +43.304443, +52.185059, +113.876343
1491872960.847848, 1491872960.850282, -0.550964, +1.246582, -0.064270, +43.304443, +52.185059, +113.876343
1491872960.850556, 1491872960.852978, -0.550964, +1.246582, -0.013550, +42.419434, +50.338745, +105.712891
1491872960.853252, 1491872960.855677, -0.683533, +1.207031, -0.013550, +42.419434, +50.338745, +105.712891
1491872960.855949, 1491872960.858361, -0.683533, +1.207031, -0.013550, +41.595459, +47.897339, +97.671509
1491872960.858634, 1491872960.861065, -0.683533, +1.207031, -0.013550, +41.595459, +47.897339, +97.671509
1491872960.861332, 1491872960.863628, -0.683533, +1.181580, +0.027466, +40.466309, +45.715332, +91.110229
1491872960.863895, 1491872960.866190, -0.675110, +1.181580, +0.027466, +40.466309, +45.715332, +91.110229
1491872960.866458, 1491872960.868758, -0.675110, +1.181580, +0.027466, +37.796021, +43.991089, +83.465576
1491872960.869025, 1491872960.871394, -0.675110, +1.181580, +0.027466, +37.796021, +43.991089, +83.465576
1491872960.871669, 1491872960.874093, -0.614319, +1.166748, +0.057312, +35.079956, +43.930054, +74.615479
1491872960.874368, 1491872960.876797, -0.614319, +1.166748, +0.057312, +35.079956, +43.930054, +74.615479
1491872960.877072, 1491872960.879490, -0.614319, +1.166748, +0.057312, +31.570435, +45.761108, +65.460205
1491872960.879765, 1491872960.882207, -0.614319, +1.166748, +0.057312, +31.570435, +45.761108, +65.460205
1491872960.882482, 1491872960.884903, -0.605347, +1.150269, +0.079651, +28.076172, +48.080444, +56.121826
1491872960.885178, 1491872960.887603, -0.605347, +1.150269, +0.079651, +28.076172, +48.080444, +56.121826
1491872960.887875, 1491872960.890309, -0.605347, +1.150269, +0.079651, +24.475098, +50.628662, +46.066284
1491872960.890583, 1491872960.893006, -0.605347, +1.150269, +0.079651, +24.475098, +50.628662, +46.066284
1491872960.893281, 1491872960.895704, -0.658447, +1.153564, +0.054932, +21.026611, +52.261353, +35.598755
1491872960.895979, 1491872960.898404, -0.658447, +1.153564, +0.054932, +21.026611, +52.261353, +35.598755
1491872960.898677, 1491872960.901058, -0.658447, +1.153564, +0.054932, +17.395020, +52.001953, +25.573730
1491872960.901325, 1491872960.903626, -0.658447, +1.200439, +0.007507, +17.395020, +52.001953, +25.573730
1491872960.903893, 1491872960.906192, -0.705872, +1.181763, +0.007507, +13.900757, +50.903320, +15.426636
1491872960.906458, 1491872960.908755, -0.705872, +1.181763, +0.007507, +13.900757, +50.903320, +15.426636
1491872960.909021, 1491872960.911349, -0.705872, +1.181763, +0.007507, +10.009766, +48.660278, +5.630493
1491872960.911615, 1491872960.913910, -0.705872, +1.134888, -0.032776, +10.009766, +48.660278, +5.630493
1491872960.914173, 1491872960.916464, -0.700378, +1.164734, -0.032776, +6.805420, +46.188354, -3.433228
1491872960.916834, 1491872960.919134, -0.700378, +1.164734, -0.032776, +6.805420, +46.188354, -3.433228
1491872960.919396, 1491872960.921789, -0.700378, +1.164734, -0.032776, +3.921509, +43.548584, -12.039185
1491872960.922062, 1491872960.924485, -0.700378, +1.127380, -0.088989, +3.921509, +43.548584, -12.039185
1491872960.924757, 1491872960.927177, -0.669434, +1.127380, -0.088989, +1.632690, +41.137695, -20.614624
1491872960.927447, 1491872960.929869, -0.669434, +1.127380, -0.088989, +1.632690, +41.137695, -20.614624
1491872960.930149, 1491872960.932570, -0.669434, +1.127380, -0.088989, -0.885010, +37.902832, -29.251099
1491872960.932845, 1491872960.935260, -0.673279, +1.103210, -0.120300, -0.885010, +37.902832, -29.251099
1491872960.935533, 1491872960.937953, -0.673279, +1.103210, -0.120300, -3.265381, +33.798218, -36.514282
1491872960.938224, 1491872960.940690, -0.673279, +1.103210, -0.120300, -3.265381, +33.798218, -44.326782
1491872960.940961, 1491872960.943377, -0.673279, +1.103210, -0.120300, -4.989624, +29.449463, -43.029785
1491872960.943648, 1491872960.946073, -0.691223, +1.068787, -0.153076, -4.989624, +29.449463, -49.392700
1491872960.946345, 1491872960.948763, -0.691223, +1.068787, -0.153076, -6.378174, +23.727417, -49.392700
1491872960.949036, 1491872960.951500, -0.691223, +1.068787, -0.153076, -6.378174, +23.727417, -54.519653
1491872960.951770, 1491872960.954194, -0.691223, +1.068787, -0.190979, -7.644653, +16.052246, -54.519653
1491872960.954463, 1491872960.956880, -0.635376, +1.036560, -0.190979, -7.644653, +8.239746, -59.020996
1491872960.957149, 1491872960.959567, -0.635376, +1.036560, -0.190979, -8.270264, +8.422852, -59.020996
1491872960.959836, 1491872960.962187, -0.635376, +1.036560, -0.190979, -8.270264, +0.610352, -62.011719
1491872960.962451, 1491872960.964744, -0.635376, +0.991882, -0.250122, -8.056641, +2.349854, -62.011719
1491872960.965006, 1491872960.967304, -0.443115, +0.991882, -0.250122, -8.056641, +2.349854, -62.210083
1491872960.967565, 1491872960.969859, -0.443115, +0.991882, -0.250122, -6.729126, -1.144409, -62.210083
1491872960.970111, 1491872960.972524, -0.443115, +0.991882, -0.250122, -6.729126, -1.144409, -49.575806
1491872960.972792, 1491872960.975216, +0.400635, +0.938232, -0.467102, -1.281738, +2.761841, -49.575806
1491872960.975484, 1491872960.977899, +0.397522, +0.938232, -0.467102, -1.281738, +2.761841, -46.752930
1491872960.978166, 1491872960.980603, +0.397522, +0.938232, -0.467102, -2.868652, -8.087158, -46.752930
1491872960.980872, 1491872960.983299, +0.397522, +0.938232, -0.467102, -2.868652, -15.899658, -43.106079
1491872960.983570, 1491872960.985987, +0.781860, +0.729126, -0.455017, -2.471924, -17.349243, -43.106079
1491872960.986257, 1491872960.988682, +0.781860, +0.729126, -0.455017, -2.471924, -15.396118, -35.278320
1491872960.988952, 1491872960.991379, +0.781860, +0.729126, -0.455017, +0.946045, -15.396118, -35.278320
1491872960.991649, 1491872960.994065, +0.781860, +0.729126, -0.455017, +4.852295, -12.191772, -34.759521
1491872960.994336, 1491872960.996762, +0.891174, +1.118225, -0.455017, +3.997803, -12.191772, -34.759521
1491872960.997033, 1491872960.999456, +0.891174, +1.118225, -0.455017, +0.091553, -16.326904, -38.787842
1491872960.999727, 1491872961.002106, +0.891174, +1.118225, -0.455017, +3.570557, -16.326904, -38.787842
1491872961.002372, 1491872961.004672, +0.891174, +1.118225, -0.314392, +3.570557, -20.019531, -44.387817
1491872961.004935, 1491872961.007233, +0.463440, +1.217285, -0.295715, +1.907349, -20.019531, -44.387817
1491872961.007496, 1491872961.009873, +0.463440, +1.217285, -0.295715, -1.998901, -24.520874, -50.018311
1491872961.010424, 1491872961.012730, +0.463440, +1.217285, -0.295715, -1.220703, -24.520874, -50.018311
1491872961.012996, 1491872961.015284, +0.463440, +1.357910, -0.055664, -6.286621, -29.571533, -51.193237
1491872961.015548, 1491872961.017844, +0.316406, +1.327148, -0.055664, -6.286621, -29.571533, -51.193237
1491872961.018108, 1491872961.020621, +0.316406, +1.327148, -0.055664, -10.192871, -32.913208, -51.910400
1491872961.021004, 1491872961.023411, +0.316406, +1.327148, -0.055664, -8.682251, -32.913208, -51.910400
1491872961.023682, 1491872961.026090, +0.441284, +1.232666, -0.062805, -6.851196, -31.219482, -52.566528
1491872961.026361, 1491872961.028763, +0.441284, +1.232666, -0.062805, -6.851196, -31.219482, -52.566528
1491872961.029032, 1491872961.031506, +0.441284, +1.232666, -0.062805, -2.029419, -25.604248, -56.991577
1491872961.031777, 1491872961.034180, +0.441284, +1.232666, -0.062805, -2.029419, -25.604248, -56.991577
1491872961.034453, 1491872961.036857, +0.466553, +1.207947, -0.133118, +2.273560, -17.181396, -62.728882
1491872961.037127, 1491872961.039535, +0.466553, +1.207947, -0.133118, +2.273560, -17.181396, -62.728882
1491872961.039807, 1491872961.042214, +0.466553, +1.207947, -0.133118, +5.950928, -9.918213, -67.230225
1491872961.042485, 1491872961.044886, +0.466553, +1.207947, -0.133118, +5.950928, -9.918213, -67.230225
1491872961.045154, 1491872961.047561, +0.263306, +1.292908, -0.162048, +9.735107, -4.898071, -73.898315
1491872961.047828, 1491872961.050264, +0.263306, +1.292908, -0.162048, +9.735107, -4.898071, -73.898315
1491872961.050533, 1491872961.052940, +0.263306, +1.292908, -0.162048, +13.702393, -3.234863, -80.398560
1491872961.053211, 1491872961.055619, +0.263306, +1.292908, -0.093750, +13.702393, -3.234863, -80.398560
1491872961.055892, 1491872961.058296, +0.132202, +1.330078, -0.093750, +15.579224, -2.777100, -85.769653
1491872961.058569, 1491872961.060990, +0.132202, +1.330078, -0.093750, +15.579224, -2.777100, -85.769653
1491872961.061261, 1491872961.063669, +0.132202, +1.330078, -0.093750, +17.562866, -3.295898, -89.508057
1491872961.063940, 1491872961.066344, +0.132202, +1.306824, -0.013916, +17.562866, -3.295898, -89.508057
1491872961.066616, 1491872961.069022, +0.093018, +1.306824, -0.013916, +20.034790, -5.218506, -91.430664
1491872961.069296, 1491872961.071723, +0.093018, +1.306824, -0.013916, +20.034790, -5.218506, -91.430664
1491872961.071994, 1491872961.074419, +0.093018, +1.306824, -0.013916, +21.850586, -8.270264, -91.690063
1491872961.074692, 1491872961.077110, +0.059143, +1.170227, +0.049438, +21.850586, -8.270264, -91.690063
1491872961.077382, 1491872961.079802, +0.059143, +1.170227, +0.049438, +23.971558, -10.711670, -91.278076
1491872961.080086, 1491872961.082514, +0.059143, +1.170227, +0.049438, +23.971558, -10.711670, -91.278076
1491872961.082791, 1491872961.085205, +0.059143, +1.170227, +0.049438, +26.138306, -12.939453, -90.194702
1491872961.085480, 1491872961.087899, +0.086975, +1.088928, +0.117188, +26.138306, -12.939453, -86.288452
1491872961.088173, 1491872961.090600, +0.086975, +1.088928, +0.117188, +26.336670, -17.150879, -87.829590
1491872961.090874, 1491872961.093297, +0.086975, +1.088928, +0.117188, +26.336670, -17.150879, -83.923340
1491872961.093572, 1491872961.095991, +0.086975, +1.088928, +0.210938, +23.742676, -22.232056, -84.686279
1491872961.096268, 1491872961.098683, +0.113342, +1.077759, +0.225952, +23.742676, -22.232056, -82.107544
1491872961.098956, 1491872961.101391, +0.113342, +1.077759, +0.225952, +21.362305, -23.117065, -82.107544
1491872961.101665, 1491872961.104088, +0.113342, +1.077759, +0.225952, +21.362305, -23.117065, -79.589844
1491872961.104361, 1491872961.106784, +0.113342, +0.938599, -0.030762, +20.980835, -17.852783, -79.589844
1491872961.107059, 1491872961.109471, +0.063904, +0.938599, -0.030762, +20.980835, -10.040283, -76.980591
1491872961.109746, 1491872961.112078, +0.063904, +0.938599, -0.030762, +23.544312, -11.169434, -76.980591
1491872961.112348, 1491872961.114641, +0.063904, +0.938599, -0.030762, +23.544312, -11.169434, -74.981689
1491872961.114910, 1491872961.117204, -0.076721, +0.890259, -0.381226, +26.458740, -9.948730, -74.981689
1491872961.117468, 1491872961.119768, -0.078369, +0.890259, -0.381226, +26.458740, -9.948730, -72.952271
1491872961.120031, 1491872961.122459, -0.078369, +0.890259, -0.381226, +26.611328, -15.457153, -72.952271
1491872961.122753, 1491872961.127156, -0.078369, +0.890259, -0.476807, +24.154663, -22.476196, -70.907593
1491872961.127569, 1491872961.129861, -0.220276, +1.012939, -0.476807, +24.154663, -22.476196, -70.907593
1491872961.130146, 1491872961.132437, -0.220276, +1.012939, -0.476807, +21.636963, -25.314331, -68.222046
1491872961.132703, 1491872961.134999, -0.220276, +1.012939, -0.476807, +21.636963, -25.314331, -68.222046
1491872961.135266, 1491872961.137553, -0.084961, +1.041138, -0.492371, +19.897461, -25.222778, -65.933228
1491872961.137821, 1491872961.140136, -0.084961, +1.041138, -0.492371, +19.897461, -25.222778, -65.933228
1491872961.140404, 1491872961.142698, -0.084961, +1.041138, -0.492371, +16.983032, -24.322510, -63.415527
1491872961.142965, 1491872961.145255, -0.084961, +1.041138, -0.492371, +16.983032, -24.322510, -63.415527
1491872961.145521, 1491872961.147819, -0.038635, +1.001770, -0.578796, +16.677856, -18.768311, -61.386108
1491872961.148086, 1491872961.150371, -0.038635, +1.001770, -0.578796, +16.677856, -18.768311, -61.386108
1491872961.150638, 1491872961.152926, -0.038635, +1.001770, -0.578796, +18.951416, -5.874634, -61.431885
1491872961.153191, 1491872961.155488, -0.038635, +1.001770, -0.578796, +18.951416, -5.874634, -61.431885
