timestamp_before, timestamp_after, accel_x, accel_y, accel_z, gyro_x, gyro_y, gyro_z
1491873083.420201, 1491873083.422554, -0.278137, +1.341614, -0.170471, -0.686646, +1.831055, -0.259399
1491873083.422906, 1491873083.425206, -0.278137, +1.341614, -0.170471, -3.250122, +7.202148, -1.358032
1491873083.425466, 1491873083.427761, -0.278137, +1.341614, -0.170471, -3.250122, +7.202148, -1.358032
1491873083.428018, 1491873083.430336, -0.278137, +1.341614, -0.141541, -3.250122, +7.217407, -1.266479
1491873083.430595, 1491873083.432888, -0.212402, +1.001221, -0.141541, -2.349854, +7.217407, -1.266479
1491873083.433146, 1491873083.435437, -0.212402, +1.001221, -0.141541, -2.349854, +7.217407, -0.991821
1491873083.435696, 1491873083.437990, -0.212402, +1.001221, -0.141541, -2.380371, +7.217407, -0.991821
1491873083.438247, 1491873083.440638, -0.212402, +1.048096, -0.141541, -2.380371, +7.217407, -0.839233
1491873083.440895, 1491873083.443191, -0.207642, +1.033264, -0.141541, -2.624512, +7.186890, -0.839233
1491873083.443449, 1491873083.445740, -0.207642, +1.033264, -0.141541, -2.624512, +7.186890, -0.701904
1491873083.445997, 1491873083.448289, -0.207642, +1.033264, -0.141541, -2.075195, +7.583618, -0.701904
1491873083.448545, 1491873083.450893, -0.207642, +1.029968, -0.162964, -2.075195, +7.583618, -0.503540
1491873083.451150, 1491873083.453445, -0.210022, +1.029968, -0.162964, -1.739502, +7.339478, -0.503540
1491873083.453701, 1491873083.455991, -0.210022, +1.029968, -0.162964, -1.739502, +7.339478, -0.518799
1491873083.456249, 1491873083.458543, -0.210022, +1.029968, -0.162964, -1.571655, +7.034302, -0.518799
1491873083.458799, 1491873083.461116, -0.210022, +1.030518, -0.168274, -1.571655, +7.034302, -0.518799
1491873083.461373, 1491873083.463669, -0.194458, +1.030518, -0.168274, -1.861572, +6.973267, -0.259399
1491873083.463926, 1491873083.466226, -0.194458, +1.030518, -0.168274, -1.861572, +6.973267, -0.259399
1491873083.466483, 1491873083.468777, -0.194458, +1.030518, -0.168274, -2.563477, +7.293701, -0.030518
1491873083.469034, 1491873083.471426, -0.194458, +1.053223, -0.170837, -2.563477, +7.293701, -0.030518
1491873083.471686, 1491873083.473983, -0.234192, +1.053223, -0.170837, -3.295898, +6.179810, +0.366211
1491873083.474241, 1491873083.476540, -0.234192, +1.053223, -0.170837, -3.295898, +6.179810, +0.366211
1491873083.476799, 1491873083.479096, -0.234192, +1.053223, -0.170837, -2.807617, +4.653931, +0.823975
1491873083.479353, 1491873083.481736, -0.234192, +1.048279, -0.163513, -2.807617, +4.653931, +0.823975
1491873083.481998, 1491873083.484382, -0.216064, +1.048279, -0.163513, -2.624512, +2.929688, +1.113892
1491873083.484642, 1491873083.487078, -0.216064, +1.048279, -0.163513, -2.624512, +2.929688, +1.113892
1491873083.487344, 1491873083.489776, -0.216064, +1.048279, -0.163513, -2.899170, +1.983643, +1.495361
1491873083.490082, 1491873083.492514, -0.201782, +1.044800, -0.154724, -2.899170, +1.983643, +1.495361
1491873083.492778, 1491873083.495199, -0.201782, +1.044800, -0.154724, -2.365112, +2.166748, +1.281738
1491873083.495461, 1491873083.497895, -0.201782, +1.044800, -0.154724, -2.365112, +2.166748, +1.281738
1491873083.498158, 1491873083.500593, -0.201782, +1.044800, -0.154724, -2.029419, +1.693726, +1.434326
1491873083.500856, 1491873083.503277, -0.221558, +1.029053, -0.152893, -2.029419, +1.693726, +1.892090
1491873083.503540, 1491873083.505964, -0.221558, +1.029053, -0.152893, -2.273560, +0.656128, +1.892090
1491873083.506229, 1491873083.508648, -0.221558, +1.029053, -0.152893, -2.273560, +0.656128, +2.120972
1491873083.508911, 1491873083.511294, -0.221558, +1.029053, -0.152893, -1.968384, +0.122070, +2.120972
1491873083.511554, 1491873083.513852, -0.206909, +1.012390, -0.162964, -1.968384, +0.122070, +2.731323
1491873083.514111, 1491873083.516405, -0.206909, +1.012390, -0.162964, -1.434326, +0.061035, +2.731323
1491873083.516663, 1491873083.518966, -0.206909, +1.012390, -0.162964, -1.434326, +0.061035, +2.731323
1491873083.519223, 1491873083.521554, -0.206909, +1.012390, -0.161316, -1.022339, +0.213623, +2.929688
1491873083.521951, 1491873083.524251, -0.217346, +1.008728, -0.161316, -1.022339, +0.213623, +3.326416
1491873083.524508, 1491873083.526810, -0.217346, +1.008728, -0.161316, -0.366211, +0.213623, +3.326416
1491873083.527068, 1491873083.529363, -0.217346, +1.008728, -0.161316, -0.366211, +0.213623, +3.326416
1491873083.529621, 1491873083.532015, -0.217346, +1.008728, -0.165710, -0.473022, +0.717163, +3.265381
1491873083.532273, 1491873083.534573, -0.212952, +1.003052, -0.165710, -0.473022, +0.717163, +3.265381
1491873083.534830, 1491873083.537128, -0.212952, +1.003052, -0.165710, -0.320435, +1.541138, +3.356934
1491873083.537384, 1491873083.539683, -0.212952, +1.003052, -0.165710, -0.320435, +1.541138, +3.356934
1491873083.539940, 1491873083.542459, -0.212952, +1.009644, -0.179443, +0.015259, +2.029419, +3.433228
1491873083.542725, 1491873083.545148, -0.208557, +1.009644, -0.179443, +0.015259, +2.029419, +3.433228
1491873083.545413, 1491873083.547837, -0.208557, +1.009644, -0.179443, +0.091553, +2.471924, +3.540039
1491873083.548101, 1491873083.550536, -0.208557, +1.009644, -0.179443, +0.091553, +2.471924, +3.540039
1491873083.550800, 1491873083.553231, -0.201233, +1.006348, -0.190979, -0.167847, +2.517700, +3.448486
1491873083.553496, 1491873083.555920, -0.201233, +1.006348, -0.190979, -0.167847, +2.517700, +3.662109
1491873083.556185, 1491873083.558611, -0.201233, +1.006348, -0.190979, -0.091553, +2.548218, +3.662109
1491873083.558878, 1491873083.561252, -0.201233, +1.006348, -0.190979, -0.091553, +2.548218, +3.631592
1491873083.561509, 1491873083.563803, -0.202881, +1.007446, -0.184753, +0.106812, +2.670288, +3.631592
1491873083.564061, 1491873083.566359, -0.202881, +1.007446, -0.184753, +0.106812, +2.670288, +3.982544
1491873083.566618, 1491873083.568915, -0.202881, +1.007446, -0.184753, +0.137329, +2.624512, +3.982544
1491873083.569172, 1491873083.571556, -0.202881, +1.007446, -0.184753, +0.137329, +2.624512, +3.982544
1491873083.571819, 1491873083.574227, -0.209839, +1.007263, -0.180176, +0.381470, +2.578735, +4.104614
1491873083.574491, 1491873083.576896, -0.209839, +1.007263, -0.180176, +0.381470, +2.578735, +4.013062
1491873083.577159, 1491873083.579562, -0.209839, +1.007263, -0.180176, +0.396729, +3.036499, +4.013062
1491873083.579825, 1491873083.582269, -0.209839, +1.007263, -0.180176, +0.396729, +3.036499, +4.486084
1491873083.582532, 1491873083.585012, -0.205994, +1.006165, -0.179443, +0.152588, +2.655029, +4.486084
1491873083.585269, 1491873083.587648, -0.205994, +1.006165, -0.179443, +0.152588, +2.655029, +4.531860
1491873083.587905, 1491873083.590273, -0.205994, +1.006165, -0.179443, +0.289917, +3.295898, +4.531860
1491873083.590536, 1491873083.592918, -0.205994, +1.006165, -0.175049, +0.289917, +3.295898, +4.562378
1491873083.593181, 1491873083.595568, -0.207458, +1.007812, -0.175049, +0.366211, +3.341675, +4.562378
1491873083.595883, 1491873083.598281, -0.207458, +1.007812, -0.175049, +0.366211, +3.341675, +4.776001
1491873083.598543, 1491873083.601386, -0.207458, +1.007812, -0.175049, +0.152588, +3.356934, +4.776001
1491873083.601652, 1491873083.604074, -0.204712, +1.005432, -0.174133, +0.442505, +3.234863, +4.867554
1491873083.604338, 1491873083.606759, -0.204712, +1.005432, -0.174133, +0.442505, +3.234863, +4.867554
1491873083.607024, 1491873083.609442, -0.204712, +1.005432, -0.174133, +0.396729, +3.295898, +5.172729
1491873083.609705, 1491873083.612114, -0.204712, +1.005432, -0.174133, +0.396729, +3.295898, +5.172729
1491873083.612371, 1491873083.614669, -0.199036, +1.010559, -0.169006, +1.007080, +3.524780, +5.401611
1491873083.614928, 1491873083.617225, -0.199036, +1.010559, -0.169006, +1.007080, +3.524780, +5.401611
1491873083.617483, 1491873083.619777, -0.199036, +1.010559, -0.169006, +0.961304, +3.479004, +5.279541
1491873083.620033, 1491873083.622473, -0.199036, +1.010559, -0.169006, +0.961304, +3.479004, +5.279541
1491873083.622731, 1491873083.625025, -0.198303, +1.010376, -0.169189, +1.251221, +3.692627, +5.371094
1491873083.625280, 1491873083.627571, -0.198303, +1.010376, -0.169189, +1.251221, +3.692627, +5.371094
1491873083.627952, 1491873083.630305, -0.198303, +1.010376, -0.169189, +1.251221, +3.906250, +5.355835
1491873083.630562, 1491873083.632860, -0.198303, +1.010376, -0.169189, +1.602173, +3.906250, +5.355835
1491873083.633116, 1491873083.635408, -0.194824, +1.016052, -0.176514, +1.602173, +3.967285, +5.386353
1491873083.635664, 1491873083.637963, -0.194824, +1.016052, -0.176514, +1.800537, +3.967285, +5.386353
1491873083.638218, 1491873083.640528, -0.194824, +1.016052, -0.176514, +1.800537, +4.302979, +5.294800
1491873083.640785, 1491873083.643082, -0.194824, +1.016052, -0.176514, +1.815796, +4.302979, +5.294800
1491873083.643339, 1491873083.645630, -0.189331, +1.018066, -0.178528, +1.815796, +4.302979, +5.355835
1491873083.645886, 1491873083.648179, -0.189331, +1.018066, -0.178528, +2.090454, +4.364014, +5.355835
1491873083.648435, 1491873083.650817, -0.189331, +1.018066, -0.178528, +2.090454, +4.364014, +5.081177
1491873083.651074, 1491873083.653369, -0.189331, +1.018066, -0.199219, +1.998901, +4.608154, +5.081177
1491873083.653625, 1491873083.655921, -0.186584, +1.019714, -0.199219, +1.998901, +4.608154, +5.187988
1491873083.656176, 1491873083.658473, -0.186584, +1.019714, -0.199219, +2.136230, +4.653931, +5.187988
1491873083.658728, 1491873083.661164, -0.186584, +1.019714, -0.199219, +2.136230, +4.653931, +4.989624
1491873083.661421, 1491873083.663716, -0.186584, +1.019714, -0.194458, +1.922607, +4.669189, +4.989624
1491873083.663970, 1491873083.666266, -0.187866, +1.024475, -0.194458, +1.922607, +4.669189, +4.821777
1491873083.666522, 1491873083.668822, -0.187866, +1.024475, -0.194458, +1.647949, +4.791260, +4.821777
1491873083.669077, 1491873083.671487, -0.187866, +1.024475, -0.194458, +1.647949, +4.791260, +4.821777
1491873083.671751, 1491873083.674152, -0.187866, +1.028687, -0.196289, +1.922607, +4.669189, +4.791260
1491873083.674414, 1491873083.676810, -0.202698, +1.028687, -0.196289, +1.922607, +4.669189, +4.943848
1491873083.677072, 1491873083.679482, -0.202698, +1.028687, -0.196289, +1.708984, +4.302979, +4.943848
1491873083.679744, 1491873083.682138, -0.202698, +1.028687, -0.196289, +1.708984, +4.302979, +4.959106
1491873083.682399, 1491873083.684784, -0.199219, +1.028503, -0.198853, +1.632690, +3.311157, +4.959106
1491873083.685045, 1491873083.687486, -0.199219, +1.028503, -0.198853, +1.632690, +3.311157, +4.547119
1491873083.687760, 1491873083.690200, -0.199219, +1.028503, -0.198853, +1.449585, +2.258301, +4.547119
1491873083.690464, 1491873083.692890, -0.199219, +1.028503, -0.198853, +1.449585, +2.258301, +5.203247
1491873083.693153, 1491873083.695568, -0.198853, +1.036194, -0.201233, +1.205444, +1.754761, +5.203247
1491873083.695834, 1491873083.698255, -0.198853, +1.036194, -0.201233, +1.205444, +1.754761, +5.691528
1491873083.698518, 1491873083.700907, -0.198853, +1.036194, -0.201233, +1.144409, +1.419067, +5.691528
1491873083.701165, 1491873083.703462, -0.198853, +1.036194, -0.201233, +1.144409, +1.419067, +5.935669
1491873083.703718, 1491873083.706009, -0.180176, +1.030151, -0.190430, +0.686646, +1.144409, +5.935669
1491873083.706267, 1491873083.708562, -0.180176, +1.030151, -0.190430, +0.686646, +1.144409, +5.599976
1491873083.708819, 1491873083.711117, -0.180176, +1.030151, -0.190430, +0.671387, +0.976562, +5.599976
1491873083.711375, 1491873083.713667, -0.180176, +1.030151, -0.190430, +0.671387, +0.976562, +5.096436
1491873083.713925, 1491873083.716333, -0.179443, +1.022644, -0.192444, +0.305176, +0.518799, +5.096436
1491873083.716609, 1491873083.718912, -0.179443, +1.022644, -0.192444, +0.305176, +0.518799, +4.806519
1491873083.719170, 1491873083.721559, -0.179443, +1.022644, -0.192444, +0.289917, +0.198364, +4.806519
1491873083.721827, 1491873083.724243, -0.179443, +1.022644, -0.192444, +0.289917, +0.198364, +5.020142
1491873083.724507, 1491873083.726932, -0.183472, +1.019531, -0.202515, +0.061035, +0.122070, +5.020142
1491873083.727199, 1491873083.729618, -0.183472, +1.019531, -0.202515, +0.061035, +0.122070, +4.837036
1491873083.729884, 1491873083.732317, -0.183472, +1.019531, -0.202515, -0.091553, +0.015259, +4.837036
1491873083.732697, 1491873083.735123, -0.183472, +1.016785, -0.202881, -0.091553, -3.890991, +4.135132
1491873083.735389, 1491873083.737806, -0.174316, +1.016785, -0.202881, -0.839233, -0.152588, +4.135132
1491873083.738069, 1491873083.740529, -0.174316, +1.016785, -0.202881, -0.839233, -0.656128, +3.692627
1491873083.740794, 1491873083.743217, -0.174316, +1.016785, -0.202881, -0.930786, -0.656128, +3.692627
1491873083.743480, 1491873083.745902, -0.176331, +1.011475, -0.197571, -0.930786, -0.305176, +3.540039
1491873083.746167, 1491873083.748592, -0.176331, +1.011475, -0.197571, -0.946045, -0.305176, +3.540039
1491873083.748858, 1491873083.751226, -0.176331, +1.011475, -0.197571, -0.946045, -0.305176, +3.372192
1491873083.751484, 1491873083.753777, -0.176331, +1.011475, -0.197571, -1.327515, -0.305176, +3.372192
1491873083.754035, 1491873083.756334, -0.170837, +1.019531, -0.204163, -1.327515, -0.045776, +3.021240
1491873083.756593, 1491873083.758887, -0.170837, +1.019531, -0.204163, -1.800537, -0.045776, +3.021240
1491873083.759145, 1491873083.761462, -0.170837, +1.019531, -0.204163, -1.800537, -0.244141, +2.700806
1491873083.761719, 1491873083.764018, -0.170837, +1.019531, -0.204163, -1.922607, -0.244141, +2.700806
1491873083.764275, 1491873083.766567, -0.182373, +1.020081, -0.192993, -1.922607, -0.244141, +2.532959
1491873083.766824, 1491873083.769120, -0.182373, +1.020081, -0.192993, -2.182007, -0.411987, +2.532959
1491873083.769376, 1491873083.771801, -0.182373, +1.020081, -0.192993, -2.182007, -0.411987, +2.334595
1491873083.772059, 1491873083.774353, -0.182373, +1.020081, -0.192993, -2.365112, -0.442505, +2.334595
1491873083.774611, 1491873083.776910, -0.188232, +1.022827, -0.189148, -2.365112, -0.442505, +2.319336
1491873083.777167, 1491873083.779455, -0.188232, +1.022827, -0.189148, -2.609253, -0.442505, +2.319336
1491873083.779712, 1491873083.782232, -0.188232, +1.022827, -0.189148, -2.609253, -0.442505, +2.105713
1491873083.782494, 1491873083.784885, -0.188232, +1.022827, -0.189148, -2.487183, -0.686646, +2.105713
1491873083.785149, 1491873083.787562, -0.181274, +1.020081, -0.190796, -2.487183, -0.686646, +2.090454
1491873083.787827, 1491873083.790309, -0.181274, +1.020081, -0.190796, -2.471924, -0.579834, +2.090454
1491873083.790574, 1491873083.792995, -0.181274, +1.020081, -0.190796, -2.471924, -0.579834, +1.724243
1491873083.793259, 1491873083.795678, -0.181274, +1.020081, -0.191895, -2.777100, -0.503540, +1.724243
1491873083.795940, 1491873083.798367, -0.190613, +1.023560, -0.191895, -2.777100, -0.366211, +1.693726
1491873083.798633, 1491873083.801095, -0.190613, +1.023560, -0.191895, -3.524780, -0.366211, +1.693726
1491873083.801360, 1491873083.803773, -0.190613, +1.023560, -0.191895, -3.524780, -0.793457, +1.663208
1491873083.804037, 1491873083.806460, -0.143738, +1.018799, -0.179810, -3.250122, -0.793457, +1.663208
1491873083.806724, 1491873083.809146, -0.186768, +1.018799, -0.179810, -3.250122, -0.595093, +1.632690
1491873083.809410, 1491873083.811840, -0.186768, +1.018799, -0.179810, -3.341675, -0.595093, +1.632690
1491873083.812105, 1491873083.814525, -0.186768, +1.018799, -0.179810, -2.960205, -0.808716, +1.602173
1491873083.814789, 1491873083.817209, -0.186401, +1.014038, -0.179993, -2.960205, -0.808716, +1.602173
1491873083.817475, 1491873083.819901, -0.186401, +1.014038, -0.179993, -2.685547, -1.022339, +1.525879
1491873083.820174, 1491873083.822471, -0.186401, +1.014038, -0.179993, -2.685547, -1.022339, +1.525879
1491873083.822726, 1491873083.825019, -0.186401, +1.014038, -0.179993, -2.746582, -0.869751, +1.647949
1491873083.825275, 1491873083.827578, -0.183655, +1.016968, -0.188965, -2.746582, -0.869751, +1.647949
1491873083.827835, 1491873083.830155, -0.183655, +1.016968, -0.188965, -2.746582, -0.839233, +1.998901
1491873083.830419, 1491873083.832843, -0.183655, +1.016968, -0.188965, -2.365112, -0.839233, +1.998901
1491873083.833107, 1491873083.835525, -0.183655, +1.016968, -0.188965, -1.953125, +0.335693, +2.059937
1491873083.835789, 1491873083.838212, -0.198669, +1.024475, -0.210388, -1.953125, +0.335693, +2.059937
1491873083.838580, 1491873083.841009, -0.198669, +1.024475, -0.210388, -1.296997, +2.944946, +2.471924
1491873083.841274, 1491873083.843691, -0.198669, +1.024475, -0.210388, -1.296997, +2.944946, +2.471924
1491873083.843954, 1491873083.846372, -0.198669, +1.024475, -0.203064, -0.534058, +5.447388, +2.578735
1491873083.846636, 1491873083.849058, -0.188965, +1.022644, -0.203064, -0.534058, +5.447388, +2.578735
1491873083.849323, 1491873083.851753, -0.188965, +1.022644, -0.203064, -0.122070, +6.927490, +2.563477
1491873083.852019, 1491873083.854443, -0.188965, +1.022644, -0.203064, -0.122070, +6.927490, +2.563477
1491873083.854707, 1491873083.857124, -0.188965, +1.020447, -0.234558, +0.686646, +9.414673, +2.731323
1491873083.857389, 1491873083.859813, -0.211487, +1.020447, -0.234558, +0.686646, +9.414673, +2.731323
1491873083.860087, 1491873083.862533, -0.211487, +1.020447, -0.234558, +3.448486, +19.409180, +4.455566
1491873083.862801, 1491873083.865222, -0.211487, +1.020447, -0.234558, +3.448486, +19.409180, +4.455566
1491873083.865489, 1491873083.867908, -0.165527, +1.023376, -0.279602, +4.302979, +32.714844, +7.507324
1491873083.868178, 1491873083.870600, -0.165527, +1.023376, -0.279602, +4.302979, +32.714844, +7.507324
1491873083.870862, 1491873083.873160, -0.165527, +1.023376, -0.279602, +2.197266, +40.985107, +10.528564
1491873083.873424, 1491873083.875724, -0.165527, +1.023376, -0.279602, +2.197266, +40.985107, +10.528564
1491873083.875988, 1491873083.878282, -0.084045, +1.029968, -0.145752, -1.937866, +43.365479, +10.284424
1491873083.878548, 1491873083.880878, -0.084045, +1.029968, -0.145752, -1.937866, +43.365479, +10.284424
1491873083.881141, 1491873083.883435, -0.084045, +1.029968, -0.145752, -6.774902, +34.072876, +6.698608
1491873083.883696, 1491873083.885988, -0.084045, +1.029968, -0.145752, -6.774902, +34.072876, +6.698608
1491873083.886249, 1491873083.888541, -0.194824, +1.016418, -0.139526, -9.185791, +24.215698, +4.028320
1491873083.888802, 1491873083.891259, -0.194824, +1.016418, -0.139526, -9.185791, +24.215698, +4.028320
1491873083.891530, 1491873083.893937, -0.194824, +1.016418, -0.139526, -10.299683, +21.499634, +2.487183
1491873083.894208, 1491873083.896615, -0.194824, +1.016418, -0.139526, -10.299683, +21.499634, +2.487183
1491873083.896884, 1491873083.899286, -0.181824, +0.998291, -0.181641, -10.696411, +16.983032, +0.671387
1491873083.899557, 1491873083.901976, -0.181824, +0.998291, -0.181641, -10.696411, +16.983032, +0.671387
1491873083.902247, 1491873083.904660, -0.181824, +0.998291, -0.181641, -11.657715, +12.557983, -0.778198
1491873083.904930, 1491873083.907339, -0.181824, +0.998291, -0.196289, -11.657715, +12.557983, -0.778198
1491873083.907609, 1491873083.910014, -0.162231, +1.009094, -0.196289, -11.779785, +11.978149, -2.243042
1491873083.910337, 1491873083.912748, -0.162231, +1.009094, -0.196289, -11.779785, +11.978149, -2.243042
1491873083.913018, 1491873083.915424, -0.162231, +1.009094, -0.196289, -12.084961, +11.306763, -3.128052
1491873083.915694, 1491873083.918099, -0.209106, +0.995544, -0.188049, -12.084961, +11.306763, -3.128052
1491873083.918369, 1491873083.920789, -0.196472, +0.995544, -0.188049, -11.703491, +9.613037, -3.738403
1491873083.921056, 1491873083.923461, -0.196472, +0.995544, -0.188049, -11.703491, +9.613037, -3.738403
1491873083.923727, 1491873083.926137, -0.196472, +0.995544, -0.188049, -11.642456, +9.109497, -3.829956
1491873083.926406, 1491873083.928807, -0.213318, +1.008911, -0.164795, -11.642456, +9.109497, -3.829956
1491873083.929073, 1491873083.931491, -0.213318, +1.008911, -0.164795, -11.978149, +9.201050, -3.738403
1491873083.931759, 1491873083.934165, -0.213318, +1.008911, -0.164795, -11.978149, +9.201050, -3.738403
1491873083.934432, 1491873083.936838, -0.213318, +1.008911, -0.164795, -12.252808, +8.728027, -3.692627
1491873083.937104, 1491873083.939517, -0.235657, +1.017334, -0.153809, -12.252808, +8.728027, -3.692627
1491873083.939782, 1491873083.942206, -0.235657, +1.017334, -0.153809, -12.481689, +8.743286, -3.555298
1491873083.942585, 1491873083.945008, -0.235657, +1.017334, -0.153809, -12.481689, +8.743286, -3.555298
1491873083.945275, 1491873083.947700, -0.235657, +1.017334, -0.158020, -12.313843, +8.712769, -2.822876
1491873083.947969, 1491873083.950404, -0.225586, +1.012573, -0.158020, -12.313843, +8.712769, -3.036499
1491873083.950672, 1491873083.953091, -0.225586, +1.012573, -0.158020, -12.939453, +8.926392, -3.036499
1491873083.953358, 1491873083.955779, -0.225586, +1.012573, -0.158020, -12.939453, +8.926392, -2.944946
1491873083.956048, 1491873083.958467, -0.225586, +1.020630, -0.137146, -14.068604, +10.253906, -2.944946
1491873083.958738, 1491873083.961173, -0.258179, +1.020630, -0.137146, -14.068604, +10.253906, -2.883911
1491873083.961444, 1491873083.963865, -0.258179, +1.020630, -0.137146, -14.907837, +9.445190, -2.883911
1491873083.964134, 1491873083.966558, -0.258179, +1.020630, -0.137146, -14.907837, +5.538940, -3.295898
1491873083.966826, 1491873083.969253, -0.239319, +1.007080, -0.147766, -15.197754, +7.797241, -3.295898
1491873083.969519, 1491873083.971956, -0.239319, +1.007080, -0.147766, -15.197754, +6.500244, -4.013062
1491873083.972223, 1491873083.974643, -0.239319, +1.007080, -0.147766, -15.136719, +6.500244, -4.013062
1491873083.974911, 1491873083.977332, -0.239319, +1.007080, -0.147766, -15.136719, +6.027222, -4.653931
1491873083.977598, 1491873083.980013, -0.206543, +1.014221, -0.167175, -15.518188, +6.027222, -4.653931
1491873083.980348, 1491873083.982646, -0.206543, +1.014221, -0.167175, -15.518188, +4.547119, -5.081177
1491873083.982907, 1491873083.985201, -0.206543, +1.014221, -0.167175, -15.274048, +4.547119, -5.081177
1491873083.985460, 1491873083.987755, -0.206543, +1.014221, -0.167175, -19.180298, +1.632690, -5.203247
1491873083.988013, 1491873083.990348, -0.241699, +1.036743, -0.157104, -15.640259, +1.632690, -5.203247
1491873083.990616, 1491873083.993035, -0.241699, +1.036743, -0.157104, -15.640259, -1.083374, -4.394531
1491873083.993303, 1491873083.995727, -0.241699, +1.036743, -0.157104, -15.716553, -1.083374, -4.394531
1491873083.995995, 1491873083.998421, -0.241699, +1.036743, -0.128723, -11.810303, -2.716064, -4.196167
1491873083.998688, 1491873084.001123, -0.199951, +1.039307, -0.128723, -14.236450, -2.716064, -4.196167
1491873084.001391, 1491873084.003817, -0.199951, +1.039307, -0.128723, -12.924194, -2.441406, -3.829956
1491873084.004085, 1491873084.006504, -0.199951, +1.039307, -0.128723, -12.924194, -2.441406, -3.829956
1491873084.006771, 1491873084.009186, -0.199951, +1.032532, -0.119934, -11.901855, -0.946045, -3.326416
1491873084.009456, 1491873084.011798, -0.190430, +1.032532, -0.119934, -11.901855, -0.946045, -3.326416
1491873084.012059, 1491873084.014352, -0.190430, +1.032532, -0.119934, -10.986328, +0.976562, -2.944946
1491873084.014615, 1491873084.016903, -0.190430, +1.032532, -0.119934, -10.986328, +0.976562, -2.944946
1491873084.017166, 1491873084.019463, -0.258362, +1.037292, -0.123413, -10.986328, +1.983643, -2.227783
1491873084.019724, 1491873084.022146, -0.258362, +1.037292, -0.123413, -9.963989, +1.983643, -2.227783
1491873084.022410, 1491873084.024840, -0.258362, +1.037292, -0.123413, -8.605957, +2.853394, -1.586914
1491873084.025104, 1491873084.027524, -0.258362, +1.037292, -0.123413, -8.605957, +2.853394, -1.586914
1491873084.027788, 1491873084.030214, -0.323181, +1.052307, -0.155640, -8.361816, +3.036499, -1.113892
1491873084.030473, 1491873084.032773, -0.323181, +1.052307, -0.155640, -8.361816, +3.036499, -1.113892
1491873084.033032, 1491873084.035331, -0.323181, +1.052307, -0.155640, -7.690430, +2.166748, +0.411987
1491873084.035587, 1491873084.037881, -0.323181, +1.052307, -0.155640, -7.690430, +2.166748, +0.411987
1491873084.038139, 1491873084.040506, -0.215149, +0.996460, -0.132568, -7.690430, +1.403809, +1.937866
1491873084.040771, 1491873084.043190, -0.215149, +0.996460, -0.132568, -6.576538, +1.403809, +1.937866
1491873084.043455, 1491873084.045879, -0.215149, +0.996460, -0.132568, -5.599976, +2.365112, +2.639771
1491873084.046142, 1491873084.048566, -0.215149, +0.996460, -0.132568, -5.599976, +2.365112, +2.639771
1491873084.048937, 1491873084.051371, -0.139343, +0.963135, -0.126892, -4.165649, +4.089355, +2.639771
1491873084.051636, 1491873084.054061, -0.139343, +0.963135, -0.126892, -4.165649, +4.089355, +2.639771
1491873084.054324, 1491873084.056742, -0.139343, +0.963135, -0.126892, -2.716064, +6.591797, +2.227783
1491873084.057005, 1491873084.059425, -0.139343, +0.963135, -0.134399, -2.716064, +6.591797, +2.227783
1491873084.059689, 1491873084.062125, -0.119934, +0.975220, -0.134399, -1.312256, +9.704590, +2.273560
1491873084.062392, 1491873084.064812, -0.119934, +0.975220, -0.134399, -1.312256, +9.704590, +2.273560
1491873084.065079, 1491873084.067502, -0.119934, +0.975220, -0.134399, +0.457764, +12.786865, +2.532959
1491873084.067770, 1491873084.070198, -0.073059, +0.957642, -0.135864, +0.457764, +12.786865, +2.532959
1491873084.070467, 1491873084.072888, -0.092468, +0.957642, -0.135864, +1.876831, +15.625000, +2.273560
1491873084.073157, 1491873084.075579, -0.092468, +0.957642, -0.135864, +1.876831, +15.625000, +2.273560
1491873084.075847, 1491873084.078266, -0.092468, +0.957642, -0.135864, +2.716064, +17.501831, +1.205444
1491873084.078537, 1491873084.080924, -0.132935, +0.992432, -0.123596, +2.716064, +17.501831, +1.205444
1491873084.081188, 1491873084.083483, -0.132935, +0.992432, -0.123596, +3.433228, +17.028809, +0.625610
1491873084.083746, 1491873084.086040, -0.132935, +0.992432, -0.123596, +3.433228, +17.028809, +0.625610
1491873084.086302, 1491873084.088603, -0.132935, +0.992432, -0.123596, +4.089355, +16.189575, -0.183105
1491873084.088865, 1491873084.091227, -0.143921, +0.970276, -0.099609, +4.089355, +16.189575, -0.183105
1491873084.091496, 1491873084.093918, -0.143921, +0.970276, -0.099609, +4.653931, +14.404297, -0.366211
1491873084.094188, 1491873084.096611, -0.143921, +0.970276, -0.099609, +4.653931, +14.404297, -0.366211
1491873084.096880, 1491873084.099302, -0.143921, +0.970276, -0.099609, +5.096436, +12.207031, -0.610352
1491873084.099571, 1491873084.102001, -0.125427, +0.951416, -0.101440, +5.096436, +12.207031, -0.610352
1491873084.102271, 1491873084.104696, -0.125427, +0.951416, -0.101440, +5.996704, +10.406494, -0.793457
1491873084.104964, 1491873084.107385, -0.125427, +0.951416, -0.101440, +5.996704, +10.406494, -0.793457
1491873084.107655, 1491873084.110091, -0.125427, +0.951416, -0.114990, +7.339478, +8.209229, -1.724243
1491873084.110357, 1491873084.112771, -0.144104, +0.961670, -0.114990, +7.339478, +8.209229, -1.724243
1491873084.113038, 1491873084.115457, -0.144104, +0.961670, -0.114990, +8.041382, +7.064819, -2.105713
1491873084.115722, 1491873084.118144, -0.144104, +0.961670, -0.114990, +8.041382, +7.064819, -2.105713
1491873084.118409, 1491873084.120891, -0.144104, +0.979797, -0.175781, +9.216309, +6.088257, -2.227783
1491873084.121157, 1491873084.123573, -0.151978, +0.979797, -0.175781, +9.216309, +6.088257, -2.227783
1491873084.123837, 1491873084.126263, -0.151978, +0.979797, -0.175781, +10.055542, +5.264282, -2.655029
1491873084.126532, 1491873084.128951, -0.151978, +0.979797, -0.175781, +10.055542, +5.264282, -2.655029
1491873084.129218, 1491873084.131612, -0.158386, +0.954346, -0.241150, +10.345459, +5.554199, -2.639771
1491873084.131875, 1491873084.134170, -0.158386, +0.954346, -0.241150, +10.345459, +5.554199, -2.639771
1491873084.134432, 1491873084.136727, -0.158386, +0.954346, -0.241150, +11.322021, +7.095337, -2.441406
1491873084.136986, 1491873084.139287, -0.158386, +0.954346, -0.241150, +11.322021, +7.095337, -2.441406
1491873084.139548, 1491873084.141845, -0.204895, +0.968811, -0.253784, +12.313843, +8.880615, -2.410889
1491873084.142107, 1491873084.144402, -0.204895, +0.968811, -0.253784, +12.313843, +8.880615, -2.410889
1491873084.144664, 1491873084.146963, -0.204895, +0.968811, -0.253784, +12.695312, +10.711670, -2.349854
1491873084.147227, 1491873084.149526, -0.204895, +0.968811, -0.253784, +12.695312, +10.711670, -2.349854
1491873084.149790, 1491873084.152209, -0.224121, +0.986206, -0.238220, +12.344360, +13.092041, -1.617432
1491873084.152589, 1491873084.155016, -0.224121, +0.986206, -0.238220, +12.344360, +13.092041, -1.617432
1491873084.155288, 1491873084.157710, -0.224121, +0.986206, -0.238220, +12.054443, +15.975952, -1.129150
1491873084.157980, 1491873084.160405, -0.224121, +0.986206, -0.238220, +12.054443, +15.975952, -1.129150
1491873084.160675, 1491873084.163096, -0.247009, +1.007996, -0.214600, +11.993408, +18.173218, -1.647949
1491873084.163366, 1491873084.165790, -0.247009, +1.007996, -0.214600, +11.993408, +18.173218, -1.647949
1491873084.166060, 1491873084.168482, -0.247009, +1.007996, -0.214600, +12.435913, +20.767212, -1.770020
1491873084.168753, 1491873084.171183, -0.247009, +1.054871, -0.148865, +12.435913, +20.767212, -1.770020
1491873084.171454, 1491873084.173876, -0.217712, +1.057617, -0.148865, +12.237549, +22.659302, -1.129150
1491873084.174146, 1491873084.176566, -0.217712, +1.057617, -0.148865, +12.237549, +22.659302, -0.656128
1491873084.176836, 1491873084.179256, -0.217712, +1.057617, -0.148865, +11.795044, +23.574829, -0.656128
1491873084.179528, 1491873084.181965, -0.149597, +1.092773, -0.145386, +11.795044, +23.574829, -0.396729
1491873084.182235, 1491873084.184657, -0.149597, +1.092773, -0.145386, +12.344360, +24.703979, -0.396729
1491873084.184927, 1491873084.187350, -0.149597, +1.092773, -0.145386, +12.344360, +24.703979, -0.289917
1491873084.187622, 1491873084.190104, -0.149597, +1.092773, -0.145386, +12.680054, +23.910522, -0.289917
1491873084.190369, 1491873084.192665, -0.138062, +1.112732, -0.158936, +12.680054, +20.004272, -0.701904
1491873084.192931, 1491873084.195231, -0.138062, +1.112732, -0.158936, +11.993408, +22.094727, -0.701904
1491873084.195495, 1491873084.197791, -0.138062, +1.112732, -0.158936, +11.993408, +22.094727, -0.564575
1491873084.198054, 1491873084.200373, -0.138062, +1.112732, -0.158936, +11.428833, +19.653320, -0.564575
1491873084.200643, 1491873084.203055, -0.153259, +1.116028, -0.187500, +11.428833, +19.653320, -0.610352
1491873084.203326, 1491873084.205724, -0.153259, +1.116028, -0.187500, +11.322021, +14.907837, -0.610352
1491873084.205995, 1491873084.208398, -0.153259, +1.116028, -0.187500, +11.322021, +11.001587, -0.518799
1491873084.208669, 1491873084.211081, -0.153259, +1.116028, -0.187500, +10.772705, +10.131836, -0.518799
1491873084.211351, 1491873084.213755, -0.167175, +1.094971, -0.214050, +10.772705, +6.225586, -0.717163
1491873084.214021, 1491873084.216431, -0.167175, +1.094971, -0.214050, +10.101318, +5.599976, -0.717163
1491873084.216698, 1491873084.219101, -0.167175, +1.094971, -0.214050, +10.101318, +2.227783, -0.778198
1491873084.219367, 1491873084.221782, -0.167175, +1.094971, -0.224121, +9.246826, +2.227783, -0.778198
1491873084.222045, 1491873084.224459, -0.139343, +1.061279, -0.224121, +9.246826, -0.244141, +0.000000
1491873084.224724, 1491873084.227124, -0.139343, +1.061279, -0.224121, +7.995605, -0.244141, +0.000000
1491873084.227388, 1491873084.229793, -0.139343, +1.061279, -0.224121, +4.089355, -3.173828, -1.052856
1491873084.230094, 1491873084.232484, -0.279968, +1.064392, -0.237122, +6.408691, -3.173828, -1.052856
1491873084.232745, 1491873084.235127, -0.258728, +1.064392, -0.237122, +6.408691, -6.439209, -1.434326
1491873084.235388, 1491873084.237775, -0.258728, +1.064392, -0.237122, +4.577637, -6.439209, -1.434326
1491873084.238036, 1491873084.240407, -0.258728, +1.064392, -0.237122, +0.671387, -9.338379, -1.358032
1491873084.240664, 1491873084.242959, -0.167542, +1.028137, -0.225952, +3.677368, -9.338379, -1.358032
1491873084.243214, 1491873084.245516, -0.167542, +1.028137, -0.225952, +3.677368, -9.704590, -1.037598
1491873084.245773, 1491873084.248064, -0.167542, +1.028137, -0.225952, +3.387451, -9.704590, -1.037598
1491873084.248323, 1491873084.250704, -0.167542, +1.028137, -0.225952, +3.387451, -8.453369, -1.464844
1491873084.250969, 1491873084.253395, -0.077271, +1.017334, -0.247559, +3.250122, -8.453369, -1.464844
1491873084.253660, 1491873084.256083, -0.077271, +1.017334, -0.247559, +3.250122, -5.950928, -2.563477
1491873084.256453, 1491873084.258881, -0.077271, +1.017334, -0.247559, +2.487183, -5.950928, -2.563477
1491873084.259144, 1491873084.261580, -0.077271, +1.017334, -0.247559, +1.663208, -3.814697, -3.829956
1491873084.261845, 1491873084.264267, -0.177429, +1.062012, -0.220825, +1.663208, -3.814697, -3.829956
1491873084.264531, 1491873084.266953, -0.177429, +1.062012, -0.220825, +1.022339, -2.517700, -4.882812
1491873084.267217, 1491873084.269635, -0.177429, +1.062012, -0.220825, +1.022339, -2.517700, -4.882812
1491873084.269900, 1491873084.272331, -0.177429, +1.062012, -0.238220, -0.015259, -1.510620, -5.340576
1491873084.272596, 1491873084.275022, -0.128723, +1.045166, -0.238220, -0.015259, -1.510620, -5.340576
1491873084.275286, 1491873084.277703, -0.128723, +1.045166, -0.238220, -1.113892, -0.274658, -6.027222
1491873084.277967, 1491873084.280391, -0.128723, +1.045166, -0.238220, -1.113892, -0.274658, -6.027222
1491873084.280647, 1491873084.282943, -0.128723, +1.013855, -0.244080, -2.014160, +0.427246, -7.461548
1491873084.283200, 1491873084.285498, -0.130554, +1.013855, -0.244080, -2.014160, +0.427246, -7.461548
1491873084.285755, 1491873084.288054, -0.130554, +1.013855, -0.244080, -2.960205, +1.129150, -8.773804
1491873084.288310, 1491873084.290743, -0.130554, +1.013855, -0.244080, -2.960205, +1.129150, -8.773804
1491873084.291005, 1491873084.293393, -0.130554, +1.018066, -0.245544, -3.372192, +1.724243, -9.780884
1491873084.293654, 1491873084.296044, -0.122131, +1.018066, -0.245544, -3.372192, +1.724243, -9.780884
1491873084.296306, 1491873084.298689, -0.122131, +1.018066, -0.245544, -4.623413, +3.128052, -11.047363
1491873084.298954, 1491873084.301473, -0.122131, +1.018066, -0.245544, -4.623413, +3.128052, -11.047363
1491873084.301741, 1491873084.304124, -0.150696, +1.006714, -0.246643, -5.599976, +3.997803, -12.344360
1491873084.304388, 1491873084.306772, -0.150696, +1.006714, -0.246643, -5.599976, +3.997803, -12.344360
1491873084.307037, 1491873084.309415, -0.150696, +1.006714, -0.246643, -7.095337, +3.051758, -12.680054
1491873084.309720, 1491873084.312148, -0.150696, +1.006714, -0.246643, -7.095337, +3.051758, -12.680054
1491873084.312417, 1491873084.314835, -0.253967, +1.004150, -0.228149, -7.049561, +1.129150, -12.435913
1491873084.315102, 1491873084.317527, -0.253967, +1.004150, -0.228149, -7.049561, +1.129150, -12.435913
1491873084.317797, 1491873084.320216, -0.253967, +1.004150, -0.228149, -7.431030, -0.656128, -12.573242
1491873084.320484, 1491873084.322907, -0.253967, +1.004150, -0.275024, -7.431030, -0.656128, -12.573242
1491873084.323173, 1491873084.325591, -0.156921, +0.989136, -0.246094, -7.797241, -1.770020, -13.412476
1491873084.325860, 1491873084.328277, -0.156921, +0.989136, -0.246094, -7.797241, -1.770020, -13.412476
1491873084.328545, 1491873084.330941, -0.156921, +0.989136, -0.246094, -8.056641, -1.998901, -14.129639
1491873084.331203, 1491873084.333500, -0.156921, +0.992065, -0.257812, -8.056641, -1.998901, -14.129639
1491873084.333761, 1491873084.336058, -0.159668, +0.992065, -0.257812, -8.605957, -2.578735, -15.106201
1491873084.336320, 1491873084.338618, -0.159668, +0.992065, -0.257812, -8.605957, -2.578735, -15.106201
1491873084.338881, 1491873084.341287, -0.159668, +0.992065, -0.257812, -8.621216, -2.960205, -15.869141
1491873084.341557, 1491873084.343978, -0.159668, +0.993713, -0.240601, -8.621216, -2.960205, -15.869141
1491873084.344248, 1491873084.346661, -0.175598, +0.993713, -0.240601, -9.536743, -2.441406, -16.784668
1491873084.346929, 1491873084.349349, -0.175598, +0.993713, -0.240601, -9.536743, -2.441406, -16.784668
1491873084.349618, 1491873084.352086, -0.175598, +0.993713, -0.240601, -10.467529, -1.815796, -17.303467
1491873084.352356, 1491873084.354774, -0.260010, +1.004700, -0.195557, -10.467529, -1.815796, -17.303467
1491873084.355045, 1491873084.357464, -0.260010, +1.004700, -0.195557, -10.681152, -2.182007, -17.807007
1491873084.357735, 1491873084.360170, -0.260010, +1.004700, -0.195557, -10.681152, -2.182007, -17.807007
1491873084.360441, 1491873084.362857, -0.260010, +1.004700, -0.195557, -11.459351, -3.143311, -17.837524
1491873084.363242, 1491873084.365668, -0.185120, +1.005798, -0.199402, -11.459351, -3.143311, -17.837524
1491873084.365940, 1491873084.368353, -0.185120, +1.005798, -0.199402, -11.505127, -3.372192, -18.234253
1491873084.368626, 1491873084.371117, -0.185120, +1.005798, -0.199402, -11.505127, -3.372192, -19.729614
1491873084.371390, 1491873084.373816, -0.185120, +1.005798, -0.186584, -11.032104, -2.700806, -19.729614
1491873084.374088, 1491873084.376511, -0.165527, +1.008728, -0.186584, -11.032104, -2.700806, -20.645142
1491873084.376782, 1491873084.379207, -0.165527, +1.008728, -0.186584, -10.894775, -2.227783, -20.645142
1491873084.379478, 1491873084.381827, -0.165527, +1.008728, -0.186584, -10.894775, -2.227783, -21.148682
1491873084.382090, 1491873084.384384, -0.165527, +1.018250, -0.175964, -10.345459, -2.197266, -21.148682
1491873084.384648, 1491873084.386955, -0.160583, +1.018250, -0.175964, -10.345459, -2.197266, -21.881104
1491873084.387221, 1491873084.389512, -0.160583, +1.018250, -0.175964, -9.277344, -3.402710, -21.881104
1491873084.389775, 1491873084.392189, -0.160583, +1.018250, -0.175964, -9.277344, -3.402710, -22.628784
1491873084.392458, 1491873084.394889, -0.160583, +0.999023, -0.181274, -8.514404, -4.760742, -22.628784
1491873084.395158, 1491873084.397578, -0.182556, +0.999023, -0.181274, -8.514404, -4.760742, -22.933960
1491873084.397846, 1491873084.400311, -0.182556, +0.999023, -0.181274, -8.346558, -7.003784, -22.933960
1491873084.400579, 1491873084.403006, -0.182556, +0.999023, -0.181274, -8.346558, -10.910034, -23.422241
1491873084.403279, 1491873084.405704, -0.312378, +1.035095, -0.129639, -8.163452, -9.353638, -23.422241
1491873084.405972, 1491873084.408400, -0.312378, +1.035095, -0.129639, -8.163452, -9.353638, -23.757935
1491873084.408668, 1491873084.411100, -0.312378, +1.035095, -0.129639, -8.209229, -10.772705, -23.757935
1491873084.411371, 1491873084.413786, -0.312378, +1.035095, -0.129639, -8.209229, -12.542725, -23.880005
1491873084.414059, 1491873084.416488, -0.319153, +1.041870, -0.143372, -8.804321, -12.542725, -23.880005
1491873084.416761, 1491873084.419180, -0.319153, +1.041870, -0.143372, -8.804321, -13.305664, -23.666382
1491873084.419453, 1491873084.421917, -0.319153, +1.041870, -0.143372, -8.972168, -13.305664, -23.666382
1491873084.422188, 1491873084.424611, -0.319153, +1.041870, -0.205811, -7.888794, -13.351440, -23.620605
1491873084.424881, 1491873084.427300, -0.182556, +0.982544, -0.205811, -7.888794, -13.351440, -23.620605
1491873084.427572, 1491873084.430002, -0.182556, +0.982544, -0.205811, -7.461548, -12.680054, -24.475098
1491873084.430328, 1491873084.432621, -0.182556, +0.982544, -0.205811, -7.461548, -12.680054, -24.475098
1491873084.432885, 1491873084.435183, -0.182556, +1.003967, -0.193542, -7.675171, -11.886597, -25.009155
1491873084.435446, 1491873084.437745, -0.244995, +1.003967, -0.193542, -7.675171, -11.886597, -25.009155
1491873084.438009, 1491873084.440335, -0.244995, +1.003967, -0.193542, -7.812500, -12.512207, -25.634766
1491873084.440607, 1491873084.443030, -0.244995, +1.003967, -0.193542, -7.812500, -12.512207, -25.634766
1491873084.443301, 1491873084.445729, -0.271729, +1.019531, -0.177063, -7.522583, -13.885498, -25.756836
1491873084.446000, 1491873084.448416, -0.271729, +1.019531, -0.177063, -7.522583, -13.885498, -25.756836
1491873084.448687, 1491873084.451125, -0.271729, +1.019531, -0.177063, -7.507324, -15.182495, -26.062012
1491873084.451396, 1491873084.453819, -0.271729, +1.019531, -0.177063, -7.507324, -15.182495, -26.062012
1491873084.454091, 1491873084.456510, -0.258728, +1.030151, -0.180359, -7.476807, -16.296387, -26.275635
1491873084.456782, 1491873084.459208, -0.258728, +1.030151, -0.180359, -7.476807, -16.296387, -26.275635
1491873084.459478, 1491873084.461907, -0.258728, +1.030151, -0.180359, -6.927490, -16.677856, -27.099609
1491873084.462177, 1491873084.464597, -0.258728, +1.030151, -0.180359, -6.927490, -16.677856, -27.099609
1491873084.464867, 1491873084.467295, -0.200317, +1.016602, -0.174500, -6.118774, -16.891479, -27.847290
1491873084.467675, 1491873084.470104, -0.200317, +1.016602, -0.174500, -6.118774, -16.891479, -27.847290
1491873084.470376, 1491873084.472806, -0.200317, +1.016602, -0.174500, -5.218506, -16.418457, -28.915405
1491873084.473077, 1491873084.475497, -0.200317, +1.063477, -0.156006, -5.218506, -16.418457, -28.915405
1491873084.475769, 1491873084.478185, -0.198853, +1.052307, -0.156006, -4.043579, -15.716553, -29.815674
1491873084.478455, 1491873084.480849, -0.198853, +1.052307, -0.156006, -4.043579, -15.716553, -29.815674
1491873084.481113, 1491873084.483405, -0.198853, +1.052307, -0.156006, -3.341675, -15.991211, -30.181885
1491873084.483669, 1491873084.485962, -0.292603, +1.090393, -0.132019, -3.341675, -15.991211, -30.181885
1491873084.486226, 1491873084.488525, -0.317505, +1.090393, -0.132019, -3.662109, -19.134521, -30.700684
1491873084.488790, 1491873084.491185, -0.317505, +1.090393, -0.132019, -3.662109, -19.134521, -30.700684
1491873084.491457, 1491873084.493881, -0.317505, +1.090393, -0.132019, -3.631592, -22.537231, -31.707764
1491873084.494154, 1491873084.496577, -0.319519, +1.053772, -0.085876, -3.631592, -22.537231, -31.707764
1491873084.496848, 1491873084.499267, -0.319519, +1.053772, -0.085876, -2.334595, -25.421143, -31.677246
1491873084.499539, 1491873084.501978, -0.319519, +1.053772, -0.085876, -2.334595, -25.421143, -31.677246
1491873084.502252, 1491873084.504671, -0.319519, +1.053772, -0.085876, -2.014160, -26.123047, -32.562256
1491873084.504941, 1491873084.507365, -0.239868, +1.049377, -0.163330, -2.014160, -26.123047, -32.562256
1491873084.507637, 1491873084.510098, -0.239868, +1.049377, -0.163330, -2.166748, -26.062012, -33.325195
1491873084.510363, 1491873084.512658, -0.239868, +1.049377, -0.163330, -2.166748, -26.062012, -33.325195
1491873084.512921, 1491873084.515222, -0.239868, +1.049377, -0.163330, -2.365112, -26.580811, -33.554077
1491873084.515484, 1491873084.517774, -0.313843, +1.067505, -0.167542, -2.365112, -26.580811, -33.554077
1491873084.518037, 1491873084.520473, -0.313843, +1.067505, -0.167542, -2.365112, -29.647827, -34.530640
1491873084.520744, 1491873084.523163, -0.313843, +1.067505, -0.167542, -2.365112, -29.647827, -34.530640
1491873084.523433, 1491873084.525853, -0.313843, +1.067505, -0.167542, -2.288818, -31.936646, -35.705566
1491873084.526125, 1491873084.528543, -0.272461, +1.092773, -0.181274, -2.288818, -31.936646, -35.705566
1491873084.528812, 1491873084.531220, -0.272461, +1.092773, -0.181274, -3.250122, -32.211304, -37.124634
1491873084.531484, 1491873084.533782, -0.272461, +1.092773, -0.181274, -3.250122, -32.211304, -37.124634
1491873084.534044, 1491873084.536346, -0.272461, +1.092773, -0.198486, -4.501343, -32.135010, -38.360596
1491873084.536609, 1491873084.538904, -0.296997, +1.117310, -0.198486, -4.501343, -32.135010, -38.360596
1491873084.539168, 1491873084.541560, -0.296997, +1.117310, -0.198486, -5.493164, -33.630371, -40.786743
1491873084.541832, 1491873084.544261, -0.296997, +1.117310, -0.198486, -5.493164, -33.630371, -40.786743
1491873084.544532, 1491873084.546950, -0.296997, +1.130493, -0.177979, -6.195068, -34.713745, -43.411255
1491873084.547222, 1491873084.549643, -0.294800, +1.130493, -0.177979, -6.195068, -34.713745, -43.411255
1491873084.549914, 1491873084.552352, -0.294800, +1.130493, -0.177979, -7.736206, -37.475586, -46.203613
1491873084.552623, 1491873084.555042, -0.294800, +1.130493, -0.177979, -7.736206, -37.475586, -50.109863
1491873084.555312, 1491873084.557741, -0.256531, +1.177002, -0.211487, -9.140015, -38.894653, -49.163818
1491873084.558014, 1491873084.560478, -0.256531, +1.177002, -0.211487, -9.140015, -38.894653, -53.375244
1491873084.560749, 1491873084.563171, -0.256531, +1.177002, -0.211487, -10.055542, -39.199829, -53.375244
1491873084.563445, 1491873084.565867, -0.256531, +1.177002, -0.211487, -10.055542, -39.199829, -57.998657
1491873084.566141, 1491873084.568562, -0.283081, +1.184692, -0.238586, -13.000488, -41.351318, -57.998657
1491873084.568836, 1491873084.571298, -0.283081, +1.184692, -0.238586, -13.000488, -45.257568, -62.347412
1491873084.571679, 1491873084.574107, -0.283081, +1.184692, -0.238586, -15.579224, -43.472290, -62.347412
1491873084.574381, 1491873084.576800, -0.283081, +1.184692, -0.307800, -15.579224, -45.547485, -66.238403
1491873084.577073, 1491873084.579497, -0.265320, +1.212891, -0.307800, -17.288208, -45.547485, -66.238403
1491873084.579770, 1491873084.582096, -0.265320, +1.212891, -0.307800, -17.288208, -48.629761, -71.029663
1491873084.582362, 1491873084.584652, -0.265320, +1.212891, -0.307800, -21.133423, -48.629761, -71.029663
1491873084.584919, 1491873084.587212, -0.265320, +1.308289, -0.334534, -21.133423, -52.536011, -75.561523
1491873084.587479, 1491873084.589771, -0.381226, +1.308289, -0.334534, -26.657104, -52.459717, -75.561523
1491873084.590037, 1491873084.592514, -0.381226, +1.308289, -0.334534, -26.657104, -56.365967, -79.132080
1491873084.592787, 1491873084.595212, -0.381226, +1.308289, -0.334534, -32.180786, -56.930542, -79.132080
1491873084.595485, 1491873084.597902, -0.391113, +1.359924, -0.237122, -32.180786, -61.431885, -83.557129
1491873084.598175, 1491873084.600606, -0.391113, +1.359924, -0.237122, -38.497925, -61.431885, -83.557129
1491873084.600880, 1491873084.603298, -0.391113, +1.359924, -0.237122, -42.404175, -64.895630, -87.448120
1491873084.603571, 1491873084.605991, -0.391113, +1.359924, -0.237122, -42.037964, -64.895630, -87.448120
1491873084.606266, 1491873084.608692, -0.329956, +1.348755, -0.234741, -46.691895, -68.252563, -89.141846
1491873084.608965, 1491873084.611398, -0.329956, +1.348755, -0.234741, -46.691895, -68.252563, -89.141846
1491873084.611671, 1491873084.614087, -0.329956, +1.348755, -0.234741, -50.521851, -69.259644, -91.842651
1491873084.614361, 1491873084.616789, -0.329956, +1.348755, -0.234741, -50.521851, -69.259644, -91.842651
1491873084.617063, 1491873084.619482, -0.190247, +1.409546, -0.217529, -52.841187, -71.960449, -94.909668
1491873084.619756, 1491873084.622112, -0.190247, +1.409546, -0.217529, -52.841187, -71.960449, -94.909668
1491873084.622380, 1491873084.624672, -0.190247, +1.409546, -0.217529, -54.550171, -72.128296, -97.671509
1491873084.624938, 1491873084.627232, -0.190247, +1.409546, -0.264404, -54.550171, -72.128296, -97.671509
1491873084.627499, 1491873084.629800, -0.107300, +1.662415, -0.268433, -54.641724, -71.411133, -100.372314
1491873084.630103, 1491873084.632525, -0.107300, +1.662415, -0.268433, -54.641724, -71.411133, -100.372314
1491873084.632801, 1491873084.635222, -0.107300, +1.662415, -0.268433, -56.335449, -67.977905, -104.873657
1491873084.635497, 1491873084.637924, -0.107300, +1.803040, -0.116638, -56.335449, -67.977905, -104.873657
1491873084.638199, 1491873084.640612, -0.120300, +1.785461, -0.116638, -58.288574, -66.360474, -109.909058
1491873084.640888, 1491873084.643310, -0.120300, +1.785461, -0.116638, -58.288574, -66.360474, -109.909058
1491873084.643586, 1491873084.646002, -0.120300, +1.785461, -0.116638, -58.731079, -67.993164, -115.051270
1491873084.646278, 1491873084.648701, -0.070862, +1.886169, -0.027283, -58.731079, -67.993164, -115.051270
1491873084.648975, 1491873084.651407, -0.070862, +1.886169, -0.027283, -59.982300, -68.389893, -121.185303
1491873084.651682, 1491873084.654107, -0.070862, +1.886169, -0.027283, -59.982300, -68.389893, -121.185303
1491873084.654380, 1491873084.656799, -0.070862, +1.886169, -0.027283, -60.592651, -67.794800, -125.747681
1491873084.657074, 1491873084.659501, +0.101074, +1.983398, +0.028748, -60.592651, -67.794800, -125.747681
1491873084.659777, 1491873084.662103, +0.101074, +1.983398, +0.028748, -61.614990, -66.284180, -130.218506
1491873084.662373, 1491873084.664674, +0.101074, +1.983398, +0.028748, -61.614990, -66.284180, -130.218506
1491873084.664941, 1491873084.667229, +0.101074, +1.983398, +0.028748, -63.964844, -64.376831, -136.764526
1491873084.667497, 1491873084.669795, +0.144836, +2.038147, +0.081482, -63.964844, -64.376831, -136.764526
1491873084.670100, 1491873084.672527, +0.144836, +2.038147, +0.081482, -66.909790, -66.024780, -143.478394
1491873084.672910, 1491873084.675328, +0.144836, +2.038147, +0.081482, -66.909790, -66.024780, -143.478394
1491873084.675605, 1491873084.678017, +0.144836, +2.038147, -0.012268, -69.427490, -70.129395, -148.864746
1491873084.678292, 1491873084.680735, +0.308899, +2.159729, -0.013916, -69.427490, -70.129395, -148.864746
1491873084.681011, 1491873084.683431, +0.308899, +2.159729, -0.013916, -70.632935, -73.608398, -154.739380
1491873084.683707, 1491873084.686130, +0.308899, +2.159729, -0.013916, -70.632935, -73.608398, -154.739380
1491873084.686405, 1491873084.688819, +0.308899, +2.263916, -0.207458, -71.533203, -76.217651, -161.727905
1491873084.689096, 1491873084.691529, +0.545288, +2.263916, -0.207458, -71.533203, -76.217651, -161.727905
1491873084.691804, 1491873084.694229, +0.545288, +2.263916, -0.207458, -69.931030, -76.202393, -167.587280
1491873084.694504, 1491873084.696932, +0.545288, +2.263916, -0.207458, -69.931030, -76.202393, -167.587280
1491873084.697206, 1491873084.699623, +0.825439, +2.243774, -0.450256, -66.848755, -71.899414, -174.301147
1491873084.699898, 1491873084.702223, +0.825439, +2.243774, -0.450256, -66.848755, -71.899414, -174.301147
1491873084.702489, 1491873084.704790, +0.825439, +2.243774, -0.450256, -61.828613, -63.446045, -179.351807
1491873084.705055, 1491873084.707358, +0.825439, +2.243774, -0.450256, -61.828613, -63.446045, -179.351807
1491873084.707626, 1491873084.709920, +0.792114, +2.310242, -0.504822, -56.411743, -53.894043, -184.020996
1491873084.710196, 1491873084.712615, +0.792114, +2.310242, -0.504822, -56.411743, -53.894043, -184.020996
1491873084.712889, 1491873084.715316, +0.792114, +2.310242, -0.504822, -50.781250, -42.495728, -184.829712
1491873084.715590, 1491873084.718012, +0.792114, +2.310242, -0.504822, -50.781250, -42.495728, -184.829712
1491873084.718285, 1491873084.720718, +0.593262, +2.569519, -0.621643, -46.417236, -26.306152, -182.632446
1491873084.720991, 1491873084.723413, +0.593262, +2.569519, -0.621643, -46.417236, -26.306152, -182.632446
1491873084.723688, 1491873084.726111, +0.593262, +2.569519, -0.621643, -45.440674, +11.077881, -179.916382
1491873084.726385, 1491873084.728810, +0.593262, +2.569519, -0.481018, -45.440674, +11.077881, -183.227539
1491873084.729083, 1491873084.731507, +0.378296, +2.574280, -0.505554, -55.328369, +42.739868, -183.227539
1491873084.731780, 1491873084.734198, +0.378296, +2.574280, -0.505554, -55.328369, +42.739868, -194.686890
1491873084.734471, 1491873084.736899, +0.378296, +2.574280, -0.505554, -66.711426, +44.967651, -194.686890
1491873084.737173, 1491873084.739594, +0.378296, +1.901001, -0.429382, -66.711426, +56.686401, -204.544067
1491873084.739869, 1491873084.742213, -0.111145, +1.901001, -0.429382, -63.217163, +55.694580, -204.544067
1491873084.742480, 1491873084.744778, -0.111145, +1.901001, -0.429382, -63.217163, +55.694580, -210.571289
1491873084.745045, 1491873084.747338, -0.111145, +1.901001, -0.429382, -56.411743, +70.877075, -210.571289
1491873084.747605, 1491873084.749903, -0.579895, +1.672668, -0.710449, -56.411743, +70.877075, -209.518433
1491873084.750167, 1491873084.752463, -0.563416, +1.672668, -0.710449, -50.888062, +71.746826, -209.518433
1491873084.752732, 1491873084.755022, -0.563416, +1.672668, -0.710449, -50.888062, +71.746826, -205.612183
1491873084.755290, 1491873084.757586, -0.563416, +1.672668, -0.710449, -45.730591, +50.170898, -203.140259
1491873084.757854, 1491873084.760173, -0.449158, +1.515198, -0.726746, -45.730591, +50.170898, -191.421509
1491873084.760448, 1491873084.762870, -0.449158, +1.515198, -0.726746, -37.307739, +34.988403, -192.108154
1491873084.763146, 1491873084.765572, -0.449158, +1.515198, -0.726746, -37.307739, +34.988403, -176.483154
1491873084.765846, 1491873084.768265, -0.449158, +1.515198, -0.726746, -31.433105, +17.318726, -175.888062
1491873084.768538, 1491873084.770980, +0.141541, +0.958923, -0.787903, -31.433105, +17.318726, -156.616211
1491873084.771254, 1491873084.773676, +0.141541, +0.958923, -0.787903, -25.238037, -5.599976, -156.616211
1491873084.773948, 1491873084.776366, +0.141541, +0.958923, -0.787903, -25.238037, -5.599976, -133.117676
1491873084.776742, 1491873084.779172, +0.141541, +0.958923, -0.787903, -14.755249, -15.075684, -133.117676
1491873084.779448, 1491873084.781920, +0.900696, +0.741394, -0.794312, -14.755249, -19.943237, -101.715088
1491873084.782194, 1491873084.784612, +0.900696, +0.741394, -0.794312, -8.468628, -19.943237, -101.715088
1491873084.784883, 1491873084.787303, +0.900696, +0.741394, -0.794312, -4.562378, -48.660278, -77.697754
1491873084.787574, 1491873084.789995, +0.900696, +0.132019, -0.535217, -4.806519, -48.660278, -77.697754
1491873084.790331, 1491873084.792759, +0.405579, +0.112610, -0.535217, +2.349854, -75.698853, -65.505981
1491873084.793031, 1491873084.795453, +0.405579, +0.112610, -0.535217, +2.349854, -75.698853, -65.505981
1491873084.795726, 1491873084.798143, +0.405579, +0.112610, -0.535217, +4.486084, -77.575684, -43.655396
1491873084.798416, 1491873084.800843, +0.798523, +0.396240, -0.520386, +4.486084, -77.575684, -43.655396
1491873084.801108, 1491873084.803404, +0.798523, +0.396240, -0.520386, +6.149292, -75.256348, -6.668091
1491873084.803666, 1491873084.805966, +0.798523, +0.396240, -0.520386, +6.149292, -75.256348, -6.668091
1491873084.806226, 1491873084.808529, +0.798523, +0.396240, -0.520386, +13.595581, -80.917358, +25.909424
1491873084.808796, 1491873084.811159, +1.559509, +0.357239, -0.578247, +13.595581, -80.917358, +25.909424
1491873084.811433, 1491873084.813861, +1.559509, +0.357239, -0.578247, +21.560669, -86.929321, +49.331665
1491873084.814136, 1491873084.816553, +1.559509, +0.357239, -0.578247, +21.560669, -86.929321, +49.331665
1491873084.816827, 1491873084.819244, +1.559509, +0.357239, -0.578247, +23.849487, -82.687378, +66.864014
1491873084.819519, 1491873084.821958, +1.656006, +0.351746, -0.376099, +23.849487, -82.687378, +66.864014
1491873084.822231, 1491873084.824653, +1.656006, +0.351746, -0.376099, +21.011353, -68.832397, +81.146240
1491873084.824927, 1491873084.827353, +1.656006, +0.351746, -0.376099, +21.011353, -68.832397, +81.146240
1491873084.827628, 1491873084.830094, +1.656006, +0.351746, -0.376099, +18.997192, -56.137085, +93.429565
1491873084.830369, 1491873084.832789, +1.266357, +0.330322, -0.067017, +18.997192, -56.137085, +93.429565
1491873084.833064, 1491873084.835490, +1.266357, +0.330322, -0.067017, +21.591187, -46.691895, +106.246948
1491873084.835765, 1491873084.838183, +1.266357, +0.330322, -0.067017, +21.591187, -46.691895, +106.246948
1491873084.838458, 1491873084.840888, +1.266357, +0.377197, -0.018494, +27.084351, -40.451050, +121.459961
1491873084.841163, 1491873084.843586, +0.773438, +0.375549, -0.018494, +27.084351, -40.451050, +121.459961
1491873084.843863, 1491873084.846280, +0.773438, +0.375549, -0.018494, +34.790039, -35.186768, +139.190674
1491873084.846555, 1491873084.848974, +0.773438, +0.375549, -0.018494, +34.790039, -35.186768, +139.190674
1491873084.849248, 1491873084.851633, +0.669800, +0.473511, -0.109680, +40.695190, -30.288696, +158.462524
1491873084.851901, 1491873084.854201, +0.669800, +0.473511, -0.109680, +40.695190, -30.288696, +158.462524
1491873084.854468, 1491873084.856763, +0.669800, +0.473511, -0.109680, +44.998169, -23.849487, +177.505493
1491873084.857032, 1491873084.859329, +0.669800, +0.473511, -0.109680, +44.998169, -23.849487, +177.505493
1491873084.859595, 1491873084.862000, +0.772705, +0.484131, -0.189331, +49.346924, -13.946533, +194.732666
1491873084.862275, 1491873084.864706, +0.772705, +0.484131, -0.189331, +49.346924, -13.946533, +194.732666
1491873084.864982, 1491873084.867408, +0.772705, +0.484131, -0.189331, +54.962158, -1.358032, +209.793091
1491873084.867679, 1491873084.870112, +0.772705, +0.484131, -0.189331, +54.962158, -1.358032, +209.793091
1491873084.870383, 1491873084.872807, +0.814087, +0.581726, -0.217346, +60.394287, +13.031006, +222.732544
1491873084.873082, 1491873084.875502, +0.814087, +0.581726, -0.217346, +60.394287, +13.031006, +222.732544
1491873084.875776, 1491873084.878197, +0.814087, +0.581726, -0.217346, +64.773560, +28.305054, +232.803345
1491873084.878580, 1491873084.881018, +0.814087, +0.581726, -0.217346, +64.773560, +28.305054, +232.803345
1491873084.881293, 1491873084.883713, +0.679504, +0.725647, -0.203247, +69.625854, +42.205811, +241.973877
1491873084.883987, 1491873084.886415, +0.679504, +0.725647, -0.203247, +69.625854, +42.205811, +253.692627
1491873084.886690, 1491873084.889109, +0.679504, +0.725647, -0.203247, +73.730469, +54.336548, +250.274658
1491873084.889383, 1491873084.891798, +0.679504, +0.872131, -0.211487, +73.730469, +54.336548, +258.087158
1491873084.892074, 1491873084.894499, +0.475525, +0.872131, -0.211487, +77.239990, +65.383911, +257.827759
1491873084.894773, 1491873084.897195, +0.475525, +0.872131, -0.211487, +77.239990, +65.383911, +265.304565
1491873084.897469, 1491873084.899895, +0.475525, +0.872131, -0.211487, +79.757690, +73.394775, +265.304565
1491873084.900178, 1491873084.902471, +0.310364, +0.984741, -0.249207, +79.757690, +73.394775, +273.315430
1491873084.902737, 1491873084.905032, +0.310364, +0.984741, -0.249207, +80.734253, +81.176758, +273.315430
1491873084.905299, 1491873084.907601, +0.310364, +0.984741, -0.249207, +80.734253, +81.176758, +281.372070
1491873084.907869, 1491873084.910176, +0.310364, +0.984741, -0.249207, +81.787109, +89.508057, +281.372070
1491873084.910454, 1491873084.912875, +0.260742, +1.085999, -0.257263, +81.787109, +89.508057, +288.513184
1491873084.913152, 1491873084.915574, +0.260742, +1.085999, -0.257263, +82.702637, +98.449707, +288.513184
1491873084.915848, 1491873084.918268, +0.260742, +1.085999, -0.257263, +82.702637, +98.449707, +294.494629
1491873084.918543, 1491873084.920979, +0.260742, +1.085999, -0.257263, +83.328247, +106.811523, +294.494629
1491873084.921253, 1491873084.923673, +0.195740, +1.250977, -0.233093, +83.328247, +106.811523, +299.072266
1491873084.923948, 1491873084.926368, +0.195740, +1.250977, -0.233093, +82.519531, +112.701416, +299.072266
1491873084.926642, 1491873084.929066, +0.195740, +1.250977, -0.233093, +82.519531, +116.607666, +303.436279
1491873084.929341, 1491873084.931772, +0.195740, +1.250977, -0.204163, +82.443237, +115.982056, +303.436279
1491873084.932047, 1491873084.934465, +0.135864, +1.384460, -0.204163, +82.443237, +117.950439, +307.449341
1491873084.934739, 1491873084.937163, +0.135864, +1.384460, -0.204163, +82.946777, +117.950439, +307.449341
1491873084.937437, 1491873084.939854, +0.135864, +1.384460, -0.204163, +82.946777, +118.377686, +311.538696
1491873084.940136, 1491873084.942565, +0.135864, +1.525085, -0.177429, +83.557129, +118.377686, +311.538696
1491873084.942840, 1491873084.945260, +0.044861, +1.525085, -0.177429, +83.557129, +116.577148, +315.048218
1491873084.945536, 1491873084.947959, +0.044861, +1.525085, -0.177429, +83.358765, +116.577148, +315.048218
1491873084.948233, 1491873084.950674, +0.044861, +1.525085, -0.177429, +82.214355, +113.037109, +318.817139
1491873084.950942, 1491873084.953235, -0.047058, +1.692810, -0.140625, +82.214355, +113.037109, +318.817139
1491873084.953502, 1491873084.955800, -0.047058, +1.692810, -0.140625, +80.932617, +107.986450, +322.937012
1491873084.956067, 1491873084.958364, -0.047058, +1.692810, -0.140625, +80.932617, +107.986450, +322.937012
1491873084.958631, 1491873084.960983, -0.047058, +1.692810, -0.140625, +80.932617, +102.920532, +326.232910
1491873084.961257, 1491873084.963684, -0.048889, +1.851013, -0.116821, +79.833984, +102.920532, +326.232910
1491873084.963961, 1491873084.966405, -0.048889, +1.851013, -0.116821, +79.650879, +99.578857, +329.025269
1491873084.966680, 1491873084.969100, -0.048889, +1.851013, -0.116821, +79.650879, +99.578857, +329.025269
1491873084.969376, 1491873084.971810, -0.048889, +1.851013, -0.116821, +79.666138, +97.854614, +331.375122
1491873084.972084, 1491873084.974507, -0.051636, +2.004639, -0.105103, +79.666138, +97.854614, +331.375122
1491873084.974782, 1491873084.977202, -0.051636, +2.004639, -0.105103, +79.162598, +97.137451, +332.672119
1491873084.977478, 1491873084.979904, -0.051636, +2.004639, -0.105103, +79.162598, +97.137451, +332.672119
1491873084.980341, 1491873084.982760, -0.051636, +2.145264, -0.092468, +78.552246, +96.801758, +332.717896
1491873084.983035, 1491873084.985462, -0.109680, +2.152588, -0.092468, +78.552246, +96.801758, +332.717896
1491873084.985738, 1491873084.988154, -0.109680, +2.152588, -0.092468, +77.713013, +95.886230, +332.687378
1491873084.988430, 1491873084.990911, -0.109680, +2.152588, -0.092468, +77.713013, +95.886230, +332.687378
1491873084.991188, 1491873084.993611, -0.238586, +2.328735, -0.095032, +76.263428, +92.819214, +331.710815
1491873084.993887, 1491873084.996305, -0.238586, +2.328735, -0.095032, +76.263428, +92.819214, +331.710815
1491873084.996579, 1491873084.999001, -0.238586, +2.328735, -0.095032, +73.440552, +89.309692, +329.742432
1491873084.999277, 1491873085.001653, -0.238586, +2.328735, -0.095032, +73.440552, +89.309692, +329.742432
1491873085.001921, 1491873085.004219, -0.497681, +2.525024, -0.100525, +68.344116, +82.794189, +326.965332
1491873085.004487, 1491873085.006790, -0.497681, +2.525024, -0.100525, +68.344116, +82.794189, +326.965332
1491873085.007058, 1491873085.009357, -0.497681, +2.525024, -0.100525, +62.515259, +72.830200, +322.525024
1491873085.009626, 1491873085.011929, -0.497681, +2.525024, -0.100525, +62.515259, +72.830200, +322.525024
1491873085.012196, 1491873085.014497, -0.803284, +2.653564, -0.069580, +55.694580, +62.347412, +316.650391
1491873085.014766, 1491873085.017057, -0.803284, +2.653564, -0.069580, +55.694580, +62.347412, +316.650391
1491873085.017324, 1491873085.019617, -0.803284, +2.653564, -0.069580, +49.133301, +54.824829, +309.997559
1491873085.019884, 1491873085.022344, -0.803284, +2.653564, -0.069580, +49.133301, +54.824829, +309.997559
1491873085.022619, 1491873085.025038, -1.128113, +2.554871, -0.115906, +44.158936, +52.154541, +301.269531
1491873085.025314, 1491873085.027742, -1.128113, +2.554871, -0.115906, +44.158936, +52.154541, +301.269531
1491873085.028016, 1491873085.030488, -1.128113, +2.554871, -0.115906, +42.678833, +51.559448, +289.886475
1491873085.030765, 1491873085.033183, -1.128113, +2.554871, -0.272278, +42.678833, +51.559448, +289.886475
1491873085.033456, 1491873085.035880, -1.421997, +2.279480, -0.272278, +47.256470, +52.490234, +275.787354
1491873085.036153, 1491873085.038574, -1.421997, +2.279480, -0.272278, +47.256470, +52.490234, +275.787354
1491873085.038847, 1491873085.041314, -1.421997, +2.279480, -0.272278, +53.894043, +54.336548, +259.796143
1491873085.041587, 1491873085.044019, -1.421997, +2.200745, -0.352112, +53.894043, +54.336548, +259.796143
1491873085.044292, 1491873085.046717, -1.793518, +2.200745, -0.352112, +57.632446, +55.664062, +242.736816
1491873085.046991, 1491873085.049420, -1.793518, +2.200745, -0.352112, +57.632446, +55.664062, +223.205566
1491873085.049693, 1491873085.052020, -1.793518, +2.200745, -0.352112, +57.876587, +54.153442, +225.326538
1491873085.052287, 1491873085.054581, -2.225647, +2.185181, -0.259460, +57.876587, +54.153442, +225.326538
1491873085.054846, 1491873085.057147, -2.225647, +2.185181, -0.259460, +56.381226, +49.133301, +208.328247
1491873085.057414, 1491873085.059711, -2.225647, +2.185181, -0.259460, +56.381226, +49.133301, +208.328247
1491873085.059978, 1491873085.062403, -2.225647, +2.185181, -0.259460, +55.541992, +44.479370, +191.467285
1491873085.062677, 1491873085.065100, -2.340637, +1.968201, -0.199219, +55.541992, +44.479370, +191.467285
1491873085.065373, 1491873085.067788, -2.340637, +1.968201, -0.199219, +55.404663, +45.898438, +175.018311
1491873085.068061, 1491873085.070501, -2.340637, +1.968201, -0.199219, +55.404663, +45.898438, +159.393311
1491873085.070774, 1491873085.073189, -2.340637, +1.968201, -0.199219, +54.580688, +54.168701, +157.852173
1491873085.073461, 1491873085.075881, -2.384399, +1.807800, -0.099243, +54.580688, +54.168701, +138.320923
1491873085.076155, 1491873085.078580, -2.384399, +1.807800, -0.099243, +51.727295, +64.285278, +137.878418
1491873085.078853, 1491873085.081288, -2.384399, +1.807800, -0.099243, +51.727295, +64.285278, +112.915039
1491873085.081561, 1491873085.083984, -2.384399, +1.807800, +0.216797, +46.569824, +72.448730, +112.915039
1491873085.084368, 1491873085.086794, -2.637268, +1.780151, +0.216797, +46.569824, +76.354980, +84.701538
1491873085.087067, 1491873085.089492, -2.637268, +1.780151, +0.216797, +39.657593, +77.484131, +84.701538
1491873085.089766, 1491873085.092203, -2.637268, +1.780151, +0.216797, +39.657593, +81.390381, +56.488037
1491873085.092476, 1491873085.094896, -3.059143, +1.694275, +0.330322, +31.524658, +79.025269, +56.488037
1491873085.095170, 1491873085.097593, -3.090820, +1.694275, +0.330322, +31.524658, +70.556641, +29.983521
1491873085.097867, 1491873085.100299, -3.090820, +1.694275, +0.330322, +22.857666, +70.556641, +29.983521
1491873085.100564, 1491873085.102862, -3.090820, +1.694275, +0.330322, +15.045166, +53.756714, +4.241943
1491873085.103125, 1491873085.105420, -3.370789, +1.623230, +0.163879, +15.045166, +53.756714, +4.241943
1491873085.105683, 1491873085.107984, -3.370789, +1.623230, +0.163879, +15.045166, +38.131714, -20.706177
1491873085.108251, 1491873085.110583, -3.370789, +1.623230, +0.163879, +8.438110, +38.131714, -20.706177
1491873085.110854, 1491873085.113284, -3.370789, +1.623230, +0.163879, +8.438110, +29.296875, -44.097900
1491873085.113555, 1491873085.115985, -3.384705, +1.454407, +0.020874, +2.517700, +29.296875, -44.097900
1491873085.116258, 1491873085.118676, -3.384705, +1.454407, +0.020874, -1.388550, +17.700195, -66.436768
1491873085.118946, 1491873085.121370, -3.384705, +1.454407, +0.020874, -2.853394, +17.700195, -66.436768
1491873085.121641, 1491873085.124057, -3.384705, +1.454407, +0.020874, -6.759644, +3.158569, -87.554932
1491873085.124324, 1491873085.126746, -3.288208, +1.259399, -0.040100, -4.928589, +3.158569, -87.554932
1491873085.127013, 1491873085.129438, -3.288208, +1.259399, -0.040100, -2.059937, -7.598877, -106.338501
1491873085.129708, 1491873085.132137, -3.288208, +1.259399, -0.040100, -2.059937, -7.598877, -106.338501
1491873085.132404, 1491873085.134829, -3.288208, +1.259399, -0.242798, +9.613037, -13.076782, -106.185913
1491873085.135101, 1491873085.137519, -2.006104, +1.667725, -0.242798, +9.613037, -13.076782, -106.185913
1491873085.137789, 1491873085.140224, -2.006104, +1.667725, -0.242798, -5.813599, -28.060913, -108.428955
1491873085.140494, 1491873085.142919, -2.006104, +1.667725, -0.242798, -5.813599, -28.060913, -108.428955
1491873085.143188, 1491873085.145607, +0.009521, +1.036377, -0.147583, -13.092041, -42.694092, -111.404419
1491873085.145884, 1491873085.148301, +0.032776, +1.036377, -0.147583, -13.092041, -42.694092, -111.404419
1491873085.148577, 1491873085.150977, +0.032776, +1.036377, -0.147583, -13.214111, -44.403076, -87.081909
1491873085.151245, 1491873085.153543, +0.032776, +1.036377, -0.147583, -13.214111, -44.403076, -87.081909
1491873085.153810, 1491873085.156108, +3.087891, +1.114197, -1.136719, -1.998901, -54.016113, -62.377930
1491873085.156369, 1491873085.158663, +3.087891, +1.114197, -1.136719, -1.998901, -54.016113, -62.377930
1491873085.158924, 1491873085.161323, +3.087891, +1.114197, -1.136719, -1.831055, -70.999146, -63.751221
1491873085.161591, 1491873085.164014, +3.087891, +1.114197, -1.136719, -1.831055, -70.999146, -63.751221
1491873085.164282, 1491873085.166704, +2.075500, +1.483154, -0.923584, -0.366211, -46.936035, -86.776733
1491873085.166977, 1491873085.169396, +2.075500, +1.483154, -0.923584, -0.366211, -46.936035, -86.776733
1491873085.169666, 1491873085.172099, +2.075500, +1.483154, -0.923584, +5.798340, -20.935059, -108.016968
1491873085.172370, 1491873085.174792, +2.075500, +1.483154, -0.923584, +5.798340, -20.935059, -108.016968
1491873085.175063, 1491873085.177488, -0.106201, +2.594238, +0.313843, +2.838135, -14.526367, -127.777100
1491873085.177761, 1491873085.180192, -0.106201, +2.594238, +0.313843, +2.838135, -14.526367, -127.777100
1491873085.180465, 1491873085.182879, -0.106201, +2.594238, +0.313843, -11.306763, -6.637573, -138.854980
1491873085.183151, 1491873085.185574, -0.106201, +2.594238, +0.355957, -11.306763, -6.637573, -138.854980
1491873085.185946, 1491873085.188368, -0.543457, +2.208984, +0.355957, -10.025024, -1.113892, -142.959595
1491873085.188640, 1491873085.191113, -0.543457, +2.208984, +0.355957, -10.025024, -1.113892, -142.959595
1491873085.191386, 1491873085.193809, -0.543457, +2.208984, +0.355957, +5.325317, +12.390137, -144.729614
1491873085.194082, 1491873085.196499, -0.025269, +1.327148, -0.340393, +5.325317, +12.390137, -144.729614
1491873085.196769, 1491873085.199197, -0.025269, +1.327148, -0.340393, +19.348145, +29.418945, -146.362305
1491873085.199471, 1491873085.201811, -0.025269, +1.327148, -0.340393, +19.348145, +29.418945, -146.362305
1491873085.202078, 1491873085.204375, -0.025269, +1.327148, -0.340393, +18.997192, +42.556763, -146.484375
1491873085.204641, 1491873085.206937, -0.203796, +1.305176, -0.006958, +18.997192, +42.556763, -146.484375
1491873085.207205, 1491873085.209499, -0.203796, +1.305176, -0.006958, +13.946533, +55.404663, -147.903442
1491873085.209767, 1491873085.212182, -0.203796, +1.305176, -0.006958, +13.946533, +55.404663, -147.903442
1491873085.212458, 1491873085.214881, -0.203796, +1.305176, -0.006958, +12.725830, +57.189941, -147.140503
1491873085.215157, 1491873085.217576, -0.716125, +1.281189, +0.008789, +12.725830, +57.189941, -147.140503
1491873085.217851, 1491873085.220289, -0.716125, +1.281189, +0.008789, +13.427734, +36.392212, -142.944336
1491873085.220563, 1491873085.222982, -0.716125, +1.281189, +0.008789, +13.427734, +36.392212, -142.944336
1491873085.223255, 1491873085.225679, -0.716125, +1.281189, -0.225586, +14.373779, +9.521484, -135.818481
1491873085.225950, 1491873085.228378, -0.568726, +1.224609, -0.197571, +14.373779, +9.521484, -128.005981
1491873085.228649, 1491873085.231115, -0.568726, +1.224609, -0.197571, +16.296387, -4.318237, -128.448486
1491873085.231385, 1491873085.233803, -0.568726, +1.224609, -0.197571, +16.296387, -4.318237, -121.673584
1491873085.234074, 1491873085.236497, -0.568726, +1.087830, -0.436157, +17.776489, -6.988525, -121.673584
1491873085.236769, 1491873085.239190, -0.246094, +1.087830, -0.436157, +17.776489, -6.988525, -114.959717
1491873085.239462, 1491873085.241902, -0.246094, +1.087830, -0.436157, +16.586304, -7.766724, -114.959717
1491873085.242174, 1491873085.244594, -0.246094, +1.087830, -0.436157, +16.586304, -3.860474, -108.551025
1491873085.244866, 1491873085.247285, -0.538513, +1.004700, -0.566162, +17.211914, -1.007080, -108.551025
1491873085.247557, 1491873085.249982, -0.538513, +1.004700, -0.566162, +17.211914, +2.899170, -104.797363
1491873085.250354, 1491873085.252650, -0.538513, +1.004700, -0.566162, +14.038086, +1.342773, -104.797363
1491873085.252915, 1491873085.255213, -0.538513, +1.004700, -0.566162, +14.038086, -18.188477, -97.457886
1491873085.255481, 1491873085.257786, -0.877808, +1.185608, -0.346252, +6.530762, -17.059326, -97.457886
1491873085.258049, 1491873085.260376, -0.877808, +1.185608, -0.346252, +6.530762, -40.496826, -89.675903
1491873085.260647, 1491873085.263083, -0.877808, +1.185608, -0.346252, -2.120972, -41.488647, -89.675903
1491873085.263355, 1491873085.265773, -0.877808, +1.185608, -0.346252, -2.120972, -57.113647, -82.794189
1491873085.266046, 1491873085.268465, -0.548401, +1.072998, -0.143921, -5.401611, -57.022095, -82.794189
1491873085.268737, 1491873085.271166, -0.548401, +1.072998, -0.143921, -5.401611, -64.666748, -75.881958
1491873085.271438, 1491873085.273856, -0.548401, +1.072998, -0.143921, -3.906250, -64.666748, -75.881958
1491873085.274128, 1491873085.276550, -0.548401, +1.072998, -0.097046, -3.906250, -65.505981, -70.770264
1491873085.276822, 1491873085.279253, -0.202698, +1.042603, -0.124695, -3.387451, -65.505981, -70.770264
1491873085.279527, 1491873085.281959, -0.202698, +1.042603, -0.124695, -4.226685, -58.776855, -66.833496
1491873085.282230, 1491873085.284654, -0.202698, +1.042603, -0.124695, -4.226685, -58.776855, -66.833496
1491873085.284926, 1491873085.287346, -0.202698, +1.043518, -0.108765, -2.136230, -48.248291, -64.041138
1491873085.287617, 1491873085.290088, -0.029297, +1.043518, -0.108765, -2.136230, -48.248291, -64.041138
1491873085.290470, 1491873085.292900, -0.029297, +1.043518, -0.108765, +1.724243, -37.994385, -62.606812
1491873085.293174, 1491873085.295589, -0.029297, +1.043518, -0.108765, +1.724243, -37.994385, -62.606812
1491873085.295860, 1491873085.298278, +0.028015, +1.028687, -0.119751, +5.294800, -32.379150, -62.088013
1491873085.298552, 1491873085.300951, +0.028015, +1.028687, -0.119751, +5.294800, -32.379150, -62.088013
1491873085.301218, 1491873085.303511, +0.028015, +1.028687, -0.119751, +7.186890, -27.008057, -62.393188
1491873085.303775, 1491873085.306079, +0.028015, +1.028687, -0.119751, +7.186890, -27.008057, -62.393188
1491873085.306344, 1491873085.308645, +0.150513, +1.072815, -0.091370, +9.979248, -19.531250, -62.744141
1491873085.308911, 1491873085.311310, +0.150513, +1.072815, -0.091370, +9.979248, -19.531250, -62.744141
1491873085.311583, 1491873085.314008, +0.150513, +1.072815, -0.091370, +11.734009, -12.741089, -63.125610
1491873085.314283, 1491873085.316701, +0.150513, +1.072815, -0.091370, +11.734009, -12.741089, -63.125610
1491873085.316976, 1491873085.319397, +0.158936, +1.094788, -0.119385, +12.527466, -7.705688, -64.361572
1491873085.319670, 1491873085.322105, +0.158936, +1.094788, -0.119385, +12.527466, -7.705688, -64.361572
1491873085.322377, 1491873085.324796, +0.158936, +1.094788, -0.119385, +12.069702, -3.479004, -64.117432
1491873085.325068, 1491873085.327494, +0.158936, +1.094788, -0.117737, +12.069702, -3.479004, -64.117432
1491873085.327767, 1491873085.330198, -0.030029, +1.143127, -0.117737, +11.032104, -3.829956, -63.400269
1491873085.330471, 1491873085.332889, -0.030029, +1.143127, -0.117737, +11.032104, -3.829956, -63.400269
1491873085.333162, 1491873085.335583, -0.030029, +1.143127, -0.117737, +10.147095, -7.385254, -61.462402
1491873085.335856, 1491873085.338278, -0.170654, +1.120972, -0.212585, +10.147095, -7.385254, -61.462402
1491873085.338548, 1491873085.340980, -0.157837, +1.120972, -0.212585, +10.787964, -12.512207, -59.356689
1491873085.341253, 1491873085.343677, -0.157837, +1.120972, -0.212585, +10.787964, -12.512207, -59.356689
1491873085.343952, 1491873085.346372, -0.157837, +1.120972, -0.212585, +9.765625, -17.105103, -57.907104
1491873085.346642, 1491873085.349065, -0.140625, +1.063477, -0.366211, +9.765625, -17.105103, -57.907104
1491873085.349336, 1491873085.351684, -0.140625, +1.063477, -0.366211, +8.178711, -20.401001, -56.762695
1491873085.351950, 1491873085.354245, -0.140625, +1.063477, -0.366211, +8.178711, -20.401001, -56.762695
1491873085.354509, 1491873085.356809, -0.140625, +1.063477, -0.366211, +5.477905, -23.681641, -55.328369
1491873085.357071, 1491873085.359366, -0.213684, +1.048279, -0.386902, +5.477905, -23.681641, -55.328369
1491873085.359629, 1491873085.362032, -0.213684, +1.048279, -0.386902, +2.593994, -27.603149, -53.833008
1491873085.362305, 1491873085.364732, -0.213684, +1.048279, -0.386902, +2.593994, -27.603149, -53.833008
1491873085.365004, 1491873085.367428, -0.213684, +1.048279, -0.386902, +1.129150, -32.806396, -52.536011
1491873085.367698, 1491873085.370129, -0.171204, +0.962585, -0.411072, +1.129150, -32.806396, -52.536011
1491873085.370401, 1491873085.372822, -0.171204, +0.962585, -0.411072, +0.259399, -37.857056, -50.735474
1491873085.373093, 1491873085.375512, -0.171204, +0.962585, -0.411072, +0.259399, -37.857056, -50.735474
1491873085.375784, 1491873085.378212, -0.171204, +0.962585, -0.438354, -0.091553, -40.435791, -49.179077
1491873085.378484, 1491873085.380919, -0.037720, +0.933289, -0.438354, -0.091553, -40.435791, -49.179077
1491873085.381190, 1491873085.383607, -0.037720, +0.933289, -0.438354, -0.274658, -40.466309, -49.346924
1491873085.383879, 1491873085.386304, -0.037720, +0.933289, -0.438354, -0.274658, -40.466309, -50.674438
1491873085.386576, 1491873085.388996, +0.009155, +0.974121, -0.390747, +0.808716, -38.269043, -50.674438
1491873085.389269, 1491873085.391627, +0.008789, +0.974121, -0.390747, +0.808716, -38.269043, -51.773071
1491873085.391892, 1491873085.394236, +0.008789, +0.974121, -0.390747, +1.174927, -36.514282, -51.773071
1491873085.394614, 1491873085.396910, +0.008789, +0.974121, -0.390747, +1.174927, -36.514282, -53.482056
1491873085.397174, 1491873085.399476, -0.104919, +1.045349, -0.327393, +1.998901, -34.973145, -53.482056
1491873085.399741, 1491873085.402063, -0.104919, +1.045349, -0.327393, +1.998901, -34.973145, -54.199219
1491873085.402327, 1491873085.404623, -0.104919, +1.045349, -0.327393, +1.449585, -32.882690, -54.199219
1491873085.404887, 1491873085.407189, -0.104919, +1.045349, -0.327393, +1.449585, -32.882690, -58.105469
1491873085.407454, 1491873085.409750, -0.177979, +1.105042, -0.232178, +1.205444, -32.043457, -55.206299
1491873085.410013, 1491873085.412319, -0.177979, +1.105042, -0.232178, +1.205444, -32.043457, -55.206299
1491873085.412583, 1491873085.414883, -0.177979, +1.105042, -0.232178, -0.061035, -32.577515, -55.801392
1491873085.415149, 1491873085.417442, -0.177979, +1.105042, -0.232178, -0.061035, -32.577515, -55.801392
1491873085.417707, 1491873085.420008, -0.138245, +1.084351, -0.197021, -0.350952, -32.653809, -56.518555
1491873085.420337, 1491873085.422758, -0.138245, +1.084351, -0.197021, -0.350952, -32.653809, -56.518555
1491873085.423029, 1491873085.425452, -0.138245, +1.084351, -0.197021, -0.946045, -31.311035, -57.907104
1491873085.425725, 1491873085.428145, -0.138245, +1.084351, -0.197021, -0.946045, -31.311035, -61.813354
1491873085.428415, 1491873085.430883, -0.102173, +1.029602, -0.232544, -1.541138, -31.341553, -58.792114
1491873085.431155, 1491873085.433582, -0.102173, +1.029602, -0.232544, -1.541138, -31.341553, -59.875488
1491873085.433854, 1491873085.436270, -0.102173, +1.029602, -0.232544, -1.022339, -32.043457, -59.875488
1491873085.436540, 1491873085.438963, -0.102173, +1.029602, -0.337830, -1.022339, -32.043457, -61.279297
1491873085.439236, 1491873085.441700, -0.148865, +1.033447, -0.337830, -1.159668, -34.271240, -61.279297
1491873085.441970, 1491873085.444388, -0.148865, +1.033447, -0.337830, -1.159668, -34.271240, -62.973022
1491873085.444659, 1491873085.447082, -0.148865, +1.033447, -0.337830, -0.473022, -38.619995, -62.973022
1491873085.447354, 1491873085.449782, -0.148865, +1.004517, -0.485779, -0.473022, -46.432495, -63.476562
1491873085.450093, 1491873085.452386, -0.166260, +1.004517, -0.485779, -0.167847, -45.593262, -63.476562
1491873085.452650, 1491873085.454952, -0.166260, +1.004517, -0.485779, -0.167847, -49.499512, -64.895630
1491873085.455214, 1491873085.457508, -0.166260, +1.004517, -0.485779, -1.037598, -50.170898, -64.895630
1491873085.457771, 1491873085.460106, -0.079651, +1.015686, -0.437988, -1.037598, -50.170898, -66.558838
1491873085.460379, 1491873085.462784, -0.079651, +1.015686, -0.437988, -2.746582, -49.911499, -66.558838
1491873085.463055, 1491873085.465455, -0.079651, +1.015686, -0.437988, -2.746582, -49.911499, -68.572998
1491873085.465726, 1491873085.468128, -0.079651, +1.015686, -0.437988, -4.211426, -48.675537, -68.572998
1491873085.468397, 1491873085.470807, -0.069397, +0.963135, -0.462891, -4.211426, -44.769287, -70.816040
1491873085.471077, 1491873085.473477, -0.069397, +0.963135, -0.462891, -5.233765, -46.295166, -70.816040
1491873085.473747, 1491873085.476158, -0.069397, +0.963135, -0.462891, -5.233765, -46.295166, -73.913574
1491873085.476429, 1491873085.478834, -0.069397, +0.963135, -0.462891, -6.439209, -45.181274, -73.913574
1491873085.479104, 1491873085.481521, -0.047974, +0.975586, -0.460510, -6.439209, -44.799805, -76.812744
1491873085.481792, 1491873085.484201, -0.047974, +0.975586, -0.460510, -7.141113, -44.799805, -76.812744
1491873085.484471, 1491873085.486878, -0.047974, +0.975586, -0.460510, -7.141113, -42.831421, -79.818726
1491873085.487149, 1491873085.489555, -0.047974, +0.975586, -0.480469, -7.598877, -42.831421, -79.818726
1491873085.489826, 1491873085.492258, -0.139893, +1.032715, -0.480469, -11.505127, -40.878296, -82.595825
1491873085.492530, 1491873085.494967, -0.139893, +1.032715, -0.480469, -10.253906, -40.878296, -82.595825
1491873085.495242, 1491873085.497666, -0.139893, +1.032715, -0.480469, -14.053345, -41.641235, -84.609985
1491873085.498057, 1491873085.500468, -0.327393, +1.115845, -0.410522, -14.053345, -41.641235, -84.609985
1491873085.500736, 1491873085.503035, -0.322632, +1.115845, -0.410522, -16.235352, -47.943115, -87.158203
1491873085.503302, 1491873085.505604, -0.322632, +1.115845, -0.410522, -16.235352, -47.943115, -87.158203
1491873085.505870, 1491873085.508166, -0.322632, +1.115845, -0.410522, -16.571045, -53.100586, -88.989258
1491873085.508433, 1491873085.510736, -0.082214, +1.192200, -0.397339, -16.571045, -53.100586, -88.989258
1491873085.511004, 1491873085.513301, -0.082214, +1.192200, -0.397339, -17.501831, -54.473877, -91.598511
1491873085.513569, 1491873085.515854, -0.082214, +1.192200, -0.397339, -17.501831, -54.473877, -91.598511
1491873085.516123, 1491873085.518415, -0.082214, +1.192200, -0.397339, -17.501831, -52.246094, -94.863892
1491873085.518682, 1491873085.521040, -0.016479, +1.307190, -0.301208, -19.012451, -52.246094, -94.863892
1491873085.521316, 1491873085.523742, -0.016479, +1.307190, -0.301208, -22.918701, -51.055908, -98.434448
1491873085.524015, 1491873085.526441, -0.016479, +1.307190, -0.301208, -21.575928, -51.055908, -98.434448
1491873085.526716, 1491873085.529137, -0.016479, +1.307190, -0.301208, -25.146484, -52.825928, -102.432251
1491873085.529410, 1491873085.531847, -0.133850, +1.439575, -0.165710, -25.146484, -52.825928, -102.432251
1491873085.532123, 1491873085.534549, -0.133850, +1.439575, -0.165710, -28.289795, -56.747437, -106.552124
1491873085.534825, 1491873085.537244, -0.133850, +1.439575, -0.165710, -28.289795, -56.747437, -106.552124
1491873085.537519, 1491873085.539948, -0.133850, +1.439575, -0.165710, -31.372070, -60.302734, -110.336304
1491873085.540220, 1491873085.542641, -0.152710, +1.572144, -0.131104, -31.372070, -60.302734, -110.336304
1491873085.542914, 1491873085.545336, -0.152710, +1.572144, -0.131104, -34.530640, -63.476562, -113.571167
1491873085.545612, 1491873085.548040, -0.152710, +1.572144, -0.131104, -34.530640, -63.476562, -113.571167
1491873085.548314, 1491873085.550750, -0.152710, +1.665894, -0.134399, -37.277222, -67.031860, -117.004395
1491873085.551024, 1491873085.553449, -0.081848, +1.677063, -0.134399, -37.277222, -67.031860, -117.004395
1491873085.553724, 1491873085.556148, -0.081848, +1.677063, -0.134399, -39.703369, -70.037842, -121.063232
1491873085.556423, 1491873085.558845, -0.081848, +1.677063, -0.134399, -39.703369, -70.037842, -121.063232
1491873085.559119, 1491873085.561486, +0.020691, +1.734741, -0.170288, -42.449951, -72.006226, -125.595093
1491873085.561753, 1491873085.564052, +0.020691, +1.734741, -0.170288, -42.449951, -72.006226, -125.595093
1491873085.564320, 1491873085.566613, +0.020691, +1.734741, -0.170288, -44.631958, -73.516846, -130.691528
1491873085.566880, 1491873085.569177, +0.020691, +1.734741, -0.170288, -44.631958, -73.516846, -130.691528
1491873085.569445, 1491873085.571824, +0.173950, +1.836548, -0.191345, -46.722412, -73.974609, -134.979248
1491873085.572096, 1491873085.574502, +0.173950, +1.836548, -0.191345, -46.722412, -73.974609, -134.979248
1491873085.574776, 1491873085.577184, +0.173950, +1.836548, -0.191345, -48.522949, -76.583862, -139.984131
1491873085.577456, 1491873085.579861, +0.173950, +1.836548, -0.191345, -48.522949, -76.583862, -139.984131
1491873085.580141, 1491873085.582552, +0.323181, +1.911987, -0.243896, -49.194336, -79.879761, -145.416260
1491873085.582825, 1491873085.585230, +0.323181, +1.911987, -0.243896, -49.194336, -79.879761, -145.416260
1491873085.585504, 1491873085.587910, +0.323181, +1.911987, -0.243896, -50.582886, -84.167480, -152.450562
1491873085.588182, 1491873085.590599, +0.323181, +1.911987, -0.243896, -50.582886, -84.167480, -152.450562
1491873085.590870, 1491873085.593343, +0.459595, +1.981934, -0.210388, -50.598145, -89.218140, -159.622192
1491873085.593620, 1491873085.596041, +0.459595, +1.981934, -0.210388, -50.598145, -89.218140, -159.622192
1491873085.596316, 1491873085.598739, +0.459595, +1.981934, -0.210388, -50.460815, -94.619751, -166.763306
1491873085.599114, 1491873085.601545, +0.459595, +2.028809, -0.162964, -50.460815, -94.619751, -166.763306
1491873085.601821, 1491873085.604243, +0.651672, +2.050964, -0.162964, -51.055908, -100.601196, -174.362183
1491873085.604518, 1491873085.606936, +0.651672, +2.050964, -0.162964, -51.055908, -100.601196, -174.362183
1491873085.607210, 1491873085.609630, +0.651672, +2.050964, -0.162964, -50.720215, -108.016968, -179.367065
1491873085.609904, 1491873085.612229, +0.795044, +2.076050, -0.112427, -50.720215, -108.016968, -187.179565
1491873085.612497, 1491873085.614788, +0.795044, +2.076050, -0.112427, -51.879883, -118.515015, -183.792114
1491873085.615055, 1491873085.617348, +0.795044, +2.076050, -0.112427, -51.879883, -118.515015, -183.792114
1491873085.617616, 1491873085.619914, +0.795044, +2.076050, -0.112427, -55.755615, -131.927490, -187.545776
1491873085.620189, 1491873085.622608, +0.780212, +2.102051, -0.129822, -55.755615, -131.927490, -187.545776
1491873085.622882, 1491873085.625307, +0.780212, +2.102051, -0.129822, -61.523438, -149.215698, -189.697266
1491873085.625581, 1491873085.628002, +0.780212, +2.102051, -0.129822, -61.523438, -149.215698, -193.603516
1491873085.628276, 1491873085.630707, +0.780212, +2.102051, -0.129822, -61.294556, -163.253784, -191.696167
1491873085.630980, 1491873085.633411, +0.990784, +1.996216, -0.348999, -61.294556, -163.253784, -191.696167
1491873085.633686, 1491873085.636108, +0.990784, +1.996216, -0.348999, -58.395386, -175.827026, -192.123413
1491873085.636383, 1491873085.638804, +0.990784, +1.996216, -0.348999, -58.395386, -175.827026, -190.567017
1491873085.639078, 1491873085.641511, +0.990784, +1.996216, -0.489624, -52.810669, -180.374146, -190.567017
1491873085.641785, 1491873085.644201, +1.326965, +2.125488, -0.510681, -52.810669, -180.374146, -199.874878
1491873085.644474, 1491873085.646902, +1.326965, +2.125488, -0.510681, -45.898438, -162.948608, -199.874878
1491873085.647175, 1491873085.649596, +1.326965, +2.125488, -0.510681, -45.898438, -135.604858, -214.355469
1491873085.649870, 1491873085.652192, +1.326965, +2.332581, -0.532288, -47.851562, -133.041382, -214.355469
1491873085.652461, 1491873085.654759, +0.510132, +2.332581, -0.532288, -47.851562, -133.041382, -221.588135
1491873085.655027, 1491873085.657320, +0.510132, +2.332581, -0.532288, -48.904419, -89.218140, -221.588135
1491873085.657587, 1491873085.659884, +0.510132, +2.332581, -0.532288, -48.904419, -89.218140, -228.469849
1491873085.660151, 1491873085.662451, +0.510132, +2.406189, -0.510315, -47.927856, -25.955200, -228.469849
1491873085.662718, 1491873085.665012, -0.133850, +2.406189, -0.510315, -47.927856, -25.955200, -230.331421
1491873085.665278, 1491873085.667574, -0.133850, +2.406189, -0.510315, -47.103882, +22.140503, -230.331421
1491873085.667840, 1491873085.670162, -0.133850, +2.406189, -0.510315, -47.103882, +22.140503, -238.143921
1491873085.670437, 1491873085.672841, -0.461975, +3.048340, -0.487427, -53.009033, +9.902954, -237.014771
1491873085.673112, 1491873085.675524, -0.430115, +3.048340, -0.487427, -53.009033, +9.902954, -248.733521
1491873085.675795, 1491873085.678194, -0.430115, +3.048340, -0.487427, -64.971924, -21.408081, -248.779297
1491873085.678469, 1491873085.680882, -0.430115, +3.048340, -0.487427, -64.971924, -21.408081, -247.299194
1491873085.681155, 1491873085.683559, -0.498230, +2.706116, -0.926697, -70.831299, -30.578613, -247.299194
1491873085.683831, 1491873085.686237, -0.498230, +2.706116, -0.926697, -70.831299, -30.578613, -236.145020
1491873085.686511, 1491873085.688921, -0.498230, +2.706116, -0.926697, -64.468384, -33.920288, -236.145020
1491873085.689193, 1491873085.691586, -0.498230, +2.706116, -0.926697, -64.468384, -33.920288, -211.868286
1491873085.691859, 1491873085.694372, +0.416016, +1.934875, -1.018066, -53.771973, -51.132202, -211.868286
1491873085.694648, 1491873085.697075, +0.416016, +1.934875, -1.018066, -53.771973, -74.569702, -183.319092
1491873085.697348, 1491873085.699770, +0.416016, +1.934875, -1.018066, -44.998169, -76.187134, -183.319092
1491873085.700091, 1491873085.702383, +0.416016, +1.934875, -0.845947, -44.998169, -93.078613, -165.039062
1491873085.702758, 1491873085.705057, +0.889709, +1.231567, -0.845947, -36.483765, -93.078613, -165.039062
1491873085.705324, 1491873085.707618, +0.889709, +1.231567, -0.845947, -36.483765, -90.881348, -149.353027
1491873085.707885, 1491873085.710197, +0.889709, +1.231567, -0.845947, -16.204834, -90.881348, -149.353027
1491873085.710473, 1491873085.712897, +0.889709, +0.575317, -0.861877, -16.204834, -110.168457, -124.374390
1491873085.713173, 1491873085.715596, +0.872131, +0.584839, -0.861877, +2.929688, -110.168457, -124.374390
1491873085.715868, 1491873085.718291, +0.872131, +0.584839, -0.861877, +22.460938, -176.605225, -95.352173
1491873085.718565, 1491873085.721002, +0.872131, +0.584839, -0.861877, +21.575928, -176.605225, -95.352173
1491873085.721275, 1491873085.723698, +0.032959, +0.208557, -0.802185, +25.482178, -209.274292, -79.101562
1491873085.723974, 1491873085.726398, +0.032959, +0.208557, -0.802185, +25.833130, -209.274292, -79.101562
1491873085.726674, 1491873085.729094, +0.032959, +0.208557, -0.802185, +17.929077, -192.810059, -56.121826
1491873085.729371, 1491873085.731805, +0.032959, +0.208557, -0.802185, +17.929077, -192.810059, -56.121826
1491873085.732080, 1491873085.734504, +1.152466, +0.753296, -0.763184, +17.089844, -170.669556, -13.473511
1491873085.734778, 1491873085.737190, +1.152466, +0.753296, -0.763184, +17.089844, -170.669556, -13.473511
1491873085.737464, 1491873085.739882, +1.152466, +0.753296, -0.763184, +25.848389, -161.865234, +25.177002
1491873085.740165, 1491873085.742589, +1.152466, +0.753296, -0.763184, +25.848389, -161.865234, +25.177002
1491873085.742864, 1491873085.745286, +1.766235, +0.758423, -0.757324, +33.447266, -151.962280, +50.765991
1491873085.745559, 1491873085.747984, +1.766235, +0.758423, -0.757324, +33.447266, -151.962280, +50.765991
1491873085.748255, 1491873085.750682, +1.766235, +0.758423, -0.757324, +32.974243, -127.166748, +66.070557
1491873085.750949, 1491873085.753252, +1.766235, +0.758423, -0.292236, +32.974243, -127.166748, +66.070557
1491873085.753517, 1491873085.755816, +1.704346, +0.830933, -0.292236, +26.351929, -91.705322, +77.590942
1491873085.756080, 1491873085.758373, +1.704346, +0.830933, -0.292236, +26.351929, -91.705322, +77.590942
1491873085.758637, 1491873085.760945, +1.704346, +0.830933, -0.292236, +20.935059, -56.747437, +87.585449
1491873085.761211, 1491873085.763505, +1.704346, +0.830933, +0.111145, +20.935059, -56.747437, +87.585449
1491873085.763771, 1491873085.766068, +1.200623, +0.803284, +0.111145, +18.203735, -24.902344, +98.724365
1491873085.766335, 1491873085.768633, +1.200623, +0.803284, +0.111145, +18.203735, -24.902344, +98.724365
1491873085.768902, 1491873085.771303, +1.200623, +0.803284, +0.111145, +18.325806, +7.369995, +113.784790
1491873085.771574, 1491873085.773983, +1.200623, +0.700745, +0.151062, +18.325806, +7.369995, +113.784790
1491873085.774254, 1491873085.776660, +0.708801, +0.700745, +0.151062, +20.431519, +33.477783, +131.256104
1491873085.776933, 1491873085.779338, +0.708801, +0.700745, +0.151062, +20.431519, +33.477783, +131.256104
1491873085.779610, 1491873085.782026, +0.708801, +0.700745, +0.151062, +21.163940, +49.697876, +150.238037
1491873085.782298, 1491873085.784705, +0.320068, +0.632263, +0.057678, +21.163940, +49.697876, +150.238037
1491873085.784979, 1491873085.787380, +0.320068, +0.632263, +0.057678, +22.140503, +55.572510, +166.275024
1491873085.787652, 1491873085.790096, +0.320068, +0.632263, +0.057678, +22.140503, +55.572510, +166.275024
1491873085.790369, 1491873085.792748, +0.320068, +0.632263, +0.057678, +23.422241, +54.901123, +181.823730
1491873085.793019, 1491873085.795557, +0.335999, +0.646912, -0.051086, +23.422241, +54.901123, +181.823730
1491873085.795833, 1491873085.798257, +0.335999, +0.646912, -0.051086, +24.368286, +55.404663, +197.708130
1491873085.798531, 1491873085.800925, +0.335999, +0.646912, -0.051086, +24.368286, +55.404663, +197.708130
1491873085.801194, 1491873085.803493, +0.335999, +0.646912, -0.051086, +27.725220, +61.218262, +213.272095
1491873085.803874, 1491873085.806175, +0.546204, +0.663391, -0.129639, +27.725220, +61.218262, +213.272095
1491873085.806441, 1491873085.808735, +0.546204, +0.663391, -0.129639, +31.707764, +71.380615, +224.746704
1491873085.809001, 1491873085.811382, +0.546204, +0.663391, -0.129639, +31.707764, +71.380615, +224.746704
1491873085.811657, 1491873085.814078, +0.546204, +0.663391, -0.149048, +34.362793, +85.205078, +235.000610
1491873085.814353, 1491873085.816772, +0.635376, +0.717773, -0.149048, +34.362793, +85.205078, +235.000610
1491873085.817046, 1491873085.819464, +0.635376, +0.717773, -0.149048, +35.919189, +100.646973, +242.019653
1491873085.819740, 1491873085.822176, +0.635376, +0.717773, -0.149048, +35.919189, +100.646973, +242.019653
1491873085.822450, 1491873085.824877, +0.401001, +0.732056, -0.204163, +37.551880, +112.579346, +248.825073
1491873085.825151, 1491873085.827573, +0.400818, +0.732056, -0.204163, +37.551880, +112.579346, +248.825073
1491873085.827846, 1491873085.830298, +0.400818, +0.732056, -0.204163, +39.398193, +121.917725, +256.057739
1491873085.830571, 1491873085.833000, +0.400818, +0.732056, -0.204163, +39.398193, +121.917725, +256.057739
1491873085.833276, 1491873085.835694, +0.099976, +0.753296, -0.231445, +40.679932, +128.540039, +262.756348
1491873085.835968, 1491873085.838389, +0.099976, +0.753296, -0.231445, +40.679932, +128.540039, +270.568848
1491873085.838664, 1491873085.841096, +0.099976, +0.753296, -0.231445, +41.549683, +128.433228, +272.674561
1491873085.841370, 1491873085.843792, +0.099976, +0.753296, -0.231445, +41.549683, +128.433228, +284.393311
1491873085.844068, 1491873085.846495, -0.078552, +0.841370, -0.269165, +41.748047, +123.535156, +284.286499
1491873085.846771, 1491873085.849193, -0.078552, +0.841370, -0.269165, +41.748047, +123.535156, +294.006348
1491873085.849468, 1491873085.851811, -0.078552, +0.841370, -0.269165, +42.953491, +116.394043, +294.006348
1491873085.852079, 1491873085.854380, -0.078552, +0.841370, -0.316040, +42.953491, +116.394043, +302.642822
1491873085.854648, 1491873085.856941, +0.034790, +0.972839, -0.300842, +45.684814, +111.663818, +302.642822
1491873085.857208, 1491873085.859506, +0.034790, +0.972839, -0.300842, +45.684814, +111.663818, +310.455322
1491873085.859773, 1491873085.862172, +0.034790, +0.972839, -0.300842, +49.530029, +112.747192, +310.958862
1491873085.862445, 1491873085.864850, +0.034790, +0.972839, -0.313477, +49.530029, +112.747192, +318.771362
1491873085.865125, 1491873085.867536, +0.187134, +1.098999, -0.313477, +52.734375, +117.111206, +318.206787
1491873085.867810, 1491873085.870219, +0.187134, +1.098999, -0.313477, +52.734375, +117.111206, +324.401855
1491873085.870494, 1491873085.872895, +0.187134, +1.098999, -0.313477, +54.641724, +120.635986, +324.401855
1491873085.873165, 1491873085.875579, +0.140259, +1.237793, -0.302490, +54.641724, +120.635986, +330.337524
1491873085.875851, 1491873085.878256, +0.125061, +1.237793, -0.302490, +55.892944, +123.245239, +330.337524
1491873085.878528, 1491873085.880958, +0.125061, +1.237793, -0.302490, +55.892944, +123.245239, +335.876465
1491873085.881232, 1491873085.883635, +0.125061, +1.237793, -0.302490, +56.716919, +123.397827, +335.876465
1491873085.883906, 1491873085.886312, -0.038635, +1.379700, -0.295166, +56.716919, +123.397827, +341.934204
1491873085.886586, 1491873085.888993, -0.038635, +1.379700, -0.295166, +58.364868, +121.337891, +341.934204
1491873085.889267, 1491873085.891669, -0.038635, +1.379700, -0.295166, +58.364868, +113.525391, +347.854614
1491873085.891941, 1491873085.894335, -0.038635, +1.379700, -0.295166, +61.218262, +116.683960, +347.854614
1491873085.894611, 1491873085.897035, -0.073792, +1.563171, -0.328857, +61.218262, +111.694336, +354.675293
1491873085.897308, 1491873085.899728, -0.073792, +1.563171, -0.328857, +63.705444, +111.694336, +354.675293
1491873085.900002, 1491873085.902326, -0.073792, +1.563171, -0.328857, +67.611694, +108.840942, +362.670898
1491873085.902594, 1491873085.904886, -0.073792, +1.563171, -0.328857, +66.726685, +108.840942, +362.670898
1491873085.905263, 1491873085.907561, -0.118469, +1.749023, -0.385254, +66.726685, +105.575562, +369.934082
1491873085.907829, 1491873085.910145, -0.118469, +1.749023, -0.385254, +70.236206, +105.575562, +369.934082
1491873085.910413, 1491873085.912705, -0.118469, +1.749023, -0.385254, +70.236206, +97.824097, +376.235962
1491873085.912973, 1491873085.915261, -0.118469, +1.749023, -0.385254, +72.097778, +97.824097, +376.235962
1491873085.915528, 1491873085.917829, -0.329224, +1.983215, -0.393677, +72.097778, +82.199097, +378.845215
1491873085.918097, 1491873085.920417, -0.329224, +1.983215, -0.393677, +74.661255, +84.213257, +378.845215
1491873085.920693, 1491873085.923116, -0.329224, +1.983215, -0.393677, +74.661255, +72.494507, +377.197266
1491873085.923389, 1491873085.925810, -0.329224, +2.170715, -0.403748, +79.528809, +73.211670, +377.197266
1491873085.926085, 1491873085.928507, -0.535034, +2.160645, -0.403748, +79.528809, +69.305420, +373.626709
1491873085.928782, 1491873085.931216, -0.535034, +2.160645, -0.403748, +85.662842, +66.757202, +373.626709
1491873085.931489, 1491873085.933913, -0.535034, +2.160645, -0.403748, +85.662842, +62.149048, +370.086670
1491873085.934189, 1491873085.936608, -0.890808, +2.350525, -0.488159, +90.698242, +62.149048, +370.086670
1491873085.936882, 1491873085.939305, -0.890808, +2.350525, -0.488159, +90.698242, +59.463501, +365.127563
1491873085.939578, 1491873085.942007, -0.890808, +2.350525, -0.488159, +92.773438, +59.463501, +365.127563
1491873085.942283, 1491873085.944716, -0.890808, +2.350525, -0.488159, +93.231201, +58.502197, +358.810425
1491873085.944993, 1491873085.947411, -1.339050, +2.558167, -0.431396, +93.231201, +58.502197, +358.810425
1491873085.947685, 1491873085.950121, -1.339050, +2.558167, -0.431396, +93.185425, +57.434082, +349.960327
1491873085.950394, 1491873085.952818, -1.339050, +2.558167, -0.431396, +93.185425, +57.434082, +349.960327
1491873085.953091, 1491873085.955511, -1.339050, +2.558167, -0.431396, +93.597412, +56.121826, +338.409424
1491873085.955784, 1491873085.958208, -1.899536, +2.648987, -0.368591, +93.597412, +56.121826, +338.409424
1491873085.958482, 1491873085.961051, -1.899536, +2.648987, -0.368591, +96.115112, +52.642822, +324.691772
1491873085.961319, 1491873085.963612, -1.899536, +2.648987, -0.368591, +96.115112, +52.642822, +324.691772
1491873085.963877, 1491873085.966296, -1.899536, +2.648987, -0.310913, +99.426270, +46.676636, +310.195923
1491873085.966562, 1491873085.968859, -2.359680, +2.606689, -0.310913, +99.426270, +46.676636, +310.195923
1491873085.969713, 1491873085.972143, -2.359680, +2.606689, -0.310913, +101.928711, +38.436890, +293.853760
1491873085.972421, 1491873085.974832, -2.359680, +2.606689, -0.310913, +101.928711, +38.436890, +293.853760
1491873085.975105, 1491873085.977507, -2.587463, +2.553589, -0.115173, +102.676392, +33.828735, +277.633667
1491873085.977778, 1491873085.980197, -2.587463, +2.553589, -0.115173, +102.676392, +33.828735, +277.633667
1491873085.980471, 1491873085.982870, -2.587463, +2.553589, -0.115173, +100.067139, +31.814575, +258.987427
1491873085.983141, 1491873085.985538, -2.587463, +2.553589, -0.115173, +100.067139, +31.814575, +258.987427
1491873085.985811, 1491873085.988212, -2.707764, +2.581055, +0.197205, +94.482422, +28.686523, +234.420776
1491873085.988485, 1491873085.990892, -2.707764, +2.581055, +0.197205, +94.482422, +28.686523, +234.420776
1491873085.991163, 1491873085.993543, -2.707764, +2.581055, +0.197205, +85.083008, +31.875610, +204.803467
1491873085.993859, 1491873085.996305, -2.707764, +2.581055, +0.572205, +85.083008, +31.875610, +169.647217
1491873085.996582, 1491873085.999004, -2.702820, +2.548096, +0.605896, +72.845459, +50.964355, +171.768188
1491873085.999277, 1491873086.001635, -2.702820, +2.548096, +0.605896, +72.845459, +50.964355, +142.440796
1491873086.001903, 1491873086.004197, -2.702820, +2.548096, +0.605896, +59.005737, +84.777832, +142.440796
1491873086.004465, 1491873086.006756, -2.702820, +2.548096, +0.736816, +59.005737, +84.777832, +111.190796
1491873086.007142, 1491873086.009442, -3.115540, +2.079346, +0.736816, +44.265747, +106.506348, +112.258911
1491873086.009708, 1491873086.012050, -3.115540, +2.079346, +0.736816, +44.265747, +106.506348, +77.102661
1491873086.012316, 1491873086.014612, -3.115540, +2.079346, +0.736816, +33.096313, +118.209839, +76.568604
1491873086.014878, 1491873086.017177, -3.115540, +1.872620, +0.538879, +33.096313, +118.209839, +76.568604
1491873086.017443, 1491873086.019734, -3.733154, +1.872620, +0.538879, +22.903442, +135.284424, +45.059204
1491873086.020000, 1491873086.022363, -3.733154, +1.872620, +0.538879, +22.903442, +135.284424, +45.059204
1491873086.022629, 1491873086.024927, -3.733154, +1.872620, +0.538879, +14.022827, +148.010254, +16.296387
1491873086.025192, 1491873086.027485, -3.733154, +1.453308, +0.127441, +14.022827, +148.010254, +16.296387
1491873086.027751, 1491873086.030097, -4.184143, +1.453308, +0.127441, +11.184692, +147.888184, -12.954712
1491873086.030363, 1491873086.032655, -4.184143, +1.453308, +0.127441, +11.184692, +147.888184, -12.954712
1491873086.032921, 1491873086.035218, -4.184143, +1.453308, +0.127441, +20.523071, +134.567261, -39.627075
1491873086.035483, 1491873086.037786, -4.184143, +2.088135, -0.169189, +20.523071, +134.567261, -39.627075
1491873086.038051, 1491873086.040444, -4.209961, +2.088135, -0.169189, +5.294800, +116.226196, -63.980103
1491873086.040717, 1491873086.043140, -4.209961, +2.088135, -0.169189, +5.294800, +116.226196, -63.980103
1491873086.043410, 1491873086.045833, -4.209961, +2.088135, -0.169189, -12.039185, +96.084595, -104.324341
1491873086.046105, 1491873086.048530, -4.582031, +1.372375, -0.059143, -12.039185, +96.084595, -104.324341
1491873086.048804, 1491873086.051234, -4.582031, +1.372375, -0.059143, -5.203247, +81.329346, -142.807007
1491873086.051505, 1491873086.053924, -4.582031, +1.372375, -0.059143, -5.203247, +81.329346, -142.807007
1491873086.054194, 1491873086.056615, -4.582031, +1.372375, -0.059143, -8.422852, +53.009033, -159.896851
1491873086.056885, 1491873086.059307, -0.574402, +2.326172, -0.431580, -8.422852, +53.009033, -148.178101
1491873086.059579, 1491873086.061911, -0.574402, +2.326172, -0.431580, -27.664185, +1.068115, -145.690918
1491873086.062178, 1491873086.064474, -0.574402, +2.326172, -0.431580, -27.664185, +1.068115, -145.690918
1491873086.064738, 1491873086.067032, -0.574402, +2.326172, -0.431580, -27.053833, -23.849487, -115.493774
1491873086.067298, 1491873086.069597, +3.981628, +1.841309, -1.181396, -27.053833, -23.849487, -115.493774
1491873086.069859, 1491873086.072302, +3.981628, +1.841309, -1.181396, -17.303467, -38.879395, -98.327637
1491873086.072573, 1491873086.074980, +3.981628, +1.841309, -1.181396, -17.303467, -38.879395, -98.327637
1491873086.075250, 1491873086.077654, +3.981628, +1.841309, -0.234741, -8.621216, -49.468994, -121.734619
1491873086.077923, 1491873086.080335, +2.263916, +2.313171, -0.234741, -8.621216, -49.468994, -121.734619
1491873086.080604, 1491873086.083011, +2.263916, +2.313171, -0.234741, -0.625610, -19.851685, -166.275024
1491873086.083280, 1491873086.085691, +2.263916, +2.313171, -0.234741, -0.625610, -19.851685, -205.337524
1491873086.085960, 1491873086.088401, +2.263916, +3.019958, +0.938416, -3.463745, +7.568359, -203.475952
1491873086.088667, 1491873086.091075, -1.163635, +3.019958, +0.938416, -3.463745, +7.568359, -214.111328
1491873086.091340, 1491873086.093722, -1.163635, +3.019958, +0.938416, -11.627197, +0.411987, -214.111328
1491873086.094072, 1491873086.096510, -1.163635, +3.019958, +0.938416, -11.627197, +0.411987, -208.847046
1491873086.096784, 1491873086.099202, -1.015686, +1.449463, +0.099426, -4.150391, -27.526855, -208.847046
1491873086.099471, 1491873086.101907, -1.015686, +1.449463, +0.099426, -4.150391, -50.964355, -197.570801
1491873086.102177, 1491873086.104745, -1.015686, +1.449463, +0.099426, +10.574341, -50.964355, -197.570801
1491873086.105018, 1491873086.107402, -1.015686, +1.449463, +0.099426, +10.574341, -53.146362, -186.508179
1491873086.108847, 1491873086.111259, -0.200867, +0.955078, +0.066833, +14.022827, -53.146362, -186.508179
1491873086.111647, 1491873086.113949, -0.200867, +0.955078, +0.066833, +10.513306, -34.637451, -179.901123
1491873086.114218, 1491873086.116515, -0.200867, +0.955078, +0.066833, +10.513306, -34.637451, -179.901123
1491873086.116783, 1491873086.119078, -0.427734, +0.823425, -0.218994, +14.083862, -0.045776, -175.659180
1491873086.119922, 1491873086.122238, -0.427734, +0.823425, -0.218994, +14.083862, -0.045776, -175.659180
1491873086.122503, 1491873086.124799, -0.427734, +0.823425, -0.218994, +32.302856, +40.542603, -172.256470
1491873086.125065, 1491873086.127364, -0.427734, +0.823425, -0.218994, +32.302856, +40.542603, -172.256470
1491873086.127630, 1491873086.129928, -1.208679, +0.881470, -1.298218, +46.829224, +75.164795, -171.005249
1491873086.130202, 1491873086.132625, -1.208679, +0.881470, -1.298218, +46.829224, +75.164795, -171.005249
1491873086.132902, 1491873086.135324, -1.208679, +0.881470, -1.298218, +41.229248, +74.600220, -159.500122
1491873086.135598, 1491873086.138024, -1.208679, +0.881470, -1.298218, +41.229248, +74.600220, -159.500122
1491873086.138297, 1491873086.140732, -0.875427, +1.714233, -0.502991, +20.721436, +61.920166, -147.781372
1491873086.141007, 1491873086.143431, -0.875427, +1.714233, -0.502991, +20.721436, +61.920166, -147.781372
1491873086.143704, 1491873086.146123, -0.875427, +1.714233, -0.502991, -3.601074, +51.696777, -138.885498
1491873086.146394, 1491873086.148813, -0.875427, +1.339233, -0.003845, -3.601074, +51.696777, -134.979248
1491873086.149083, 1491873086.151443, -0.613403, +1.356628, -0.003845, -13.275146, +42.144775, -133.483887
1491873086.151710, 1491873086.154003, -0.613403, +1.356628, -0.003845, -13.275146, +42.144775, -125.671387
1491873086.154271, 1491873086.156568, -0.613403, +1.356628, -0.003845, -16.799927, +11.215210, -127.166748
1491873086.156834, 1491873086.159127, -0.613403, +0.889709, -0.565613, -16.799927, +11.215210, -127.166748
1491873086.159394, 1491873086.161688, -1.055054, +0.889709, -0.565613, -17.547607, -26.473999, -109.375000
1491873086.161955, 1491873086.164250, -1.055054, +0.889709, -0.565613, -17.547607, -26.473999, -109.375000
1491873086.164516, 1491873086.166809, -1.055054, +0.889709, -0.565613, -18.554688, -50.735474, -89.797974
1491873086.167075, 1491873086.169366, -1.055054, +0.994446, -0.178162, -18.554688, -50.735474, -89.797974
1491873086.169631, 1491873086.171982, -0.387085, +0.994446, -0.178162, -17.059326, -62.042236, -79.025269
1491873086.172248, 1491873086.174541, -0.387085, +0.994446, -0.178162, -17.059326, -62.042236, -79.025269
1491873086.174807, 1491873086.177104, -0.387085, +0.994446, -0.178162, -16.677856, -65.948486, -72.830200
1491873086.177372, 1491873086.179665, -0.340210, +1.131775, +0.309998, -16.677856, -65.948486, -72.830200
1491873086.179932, 1491873086.182421, -0.360718, +1.131775, +0.309998, -14.389038, -61.401367, -69.610596
1491873086.182694, 1491873086.185101, -0.360718, +1.131775, +0.309998, -14.389038, -61.401367, -69.610596
1491873086.185373, 1491873086.187777, -0.360718, +1.131775, +0.309998, -6.759644, -51.345825, -66.909790
1491873086.188047, 1491873086.190488, -0.038452, +1.017883, +0.212952, -6.759644, -51.345825, -66.909790
1491873086.190756, 1491873086.193139, -0.038452, +1.017883, +0.212952, +0.366211, -41.763306, -63.980103
1491873086.193409, 1491873086.195908, -0.038452, +1.017883, +0.212952, +0.366211, -41.763306, -63.980103
1491873086.196183, 1491873086.198602, -0.038452, +1.017883, +0.212952, +4.074097, -34.805298, -62.698364
1491873086.198872, 1491873086.201304, -0.019226, +1.135254, +0.119751, +4.074097, -34.805298, -62.698364
1491873086.201576, 1491873086.203996, -0.019226, +1.135254, +0.119751, +5.966187, -32.119751, -62.377930
1491873086.204267, 1491873086.206687, -0.019226, +1.135254, +0.119751, +5.966187, -32.119751, -66.284180
1491873086.206960, 1491873086.209382, -0.019226, +1.135254, +0.028564, +10.635376, -30.975342, -63.278198
1491873086.209656, 1491873086.211981, -0.040649, +1.195862, +0.028564, +10.635376, -30.975342, -63.278198
1491873086.212363, 1491873086.214660, -0.040649, +1.195862, +0.028564, +13.809204, -28.793335, -64.468384
1491873086.214928, 1491873086.217223, -0.040649, +1.195862, +0.028564, +13.809204, -28.793335, -64.468384
1491873086.217489, 1491873086.219790, -0.040649, +1.195862, -0.056946, +15.090942, -26.397705, -65.155029
1491873086.220106, 1491873086.222576, +0.006592, +1.211060, -0.056946, +15.090942, -26.397705, -65.704346
1491873086.222853, 1491873086.225271, +0.006592, +1.211060, -0.056946, +16.174316, -23.727417, -65.704346
1491873086.225544, 1491873086.227962, +0.006592, +1.211060, -0.056946, +16.174316, -23.727417, -66.619873
1491873086.228235, 1491873086.230699, -0.034241, +1.173706, -0.212585, +15.777588, -22.598267, -66.619873
1491873086.230975, 1491873086.234033, -0.034241, +1.173706, -0.212585, +15.777588, -22.598267, -66.497803
1491873086.234304, 1491873086.236686, -0.034241, +1.173706, -0.212585, +14.404297, -21.514893, -66.497803
1491873086.236955, 1491873086.239246, -0.034241, +1.173706, -0.212585, +11.550903, -20.263672, -64.941406
1491873086.239513, 1491873086.241916, -0.175415, +1.085449, -0.406677, +11.550903, -20.263672, -64.941406
1491873086.242184, 1491873086.244474, -0.175415, +1.085449, -0.406677, +8.132935, -21.133423, -63.796997
1491873086.244741, 1491873086.247035, -0.175415, +1.085449, -0.406677, +8.132935, -21.133423, -63.796997
1491873086.247300, 1491873086.249678, -0.175415, +1.085449, -0.406677, +4.791260, -22.766113, -62.866211
1491873086.249943, 1491873086.252245, -0.122498, +1.043152, -0.381958, +4.791260, -22.766113, -62.866211
1491873086.252510, 1491873086.254801, -0.122498, +1.043152, -0.381958, +0.885010, -22.598267, -62.957764
1491873086.255066, 1491873086.257357, -0.122498, +1.043152, -0.381958, +2.624512, -22.598267, -62.957764
1491873086.257620, 1491873086.259941, -0.122498, +1.043152, -0.456116, +2.624512, -21.209717, -62.774658
1491873086.260203, 1491873086.262536, -0.103088, +0.970825, -0.456116, +0.717163, -21.209717, -62.774658
1491873086.262801, 1491873086.265090, -0.103088, +0.970825, -0.456116, +0.717163, -21.209717, -61.889648
1491873086.265353, 1491873086.267641, -0.103088, +0.970825, -0.456116, -2.044678, -22.796631, -61.889648
1491873086.267904, 1491873086.270200, -0.103088, +0.970825, -0.460693, -2.044678, -26.702881, -60.577393
1491873086.270465, 1491873086.272761, -0.199585, +0.929260, -0.460693, -3.890991, -27.175903, -60.577393
1491873086.273025, 1491873086.275319, -0.199585, +0.929260, -0.460693, -3.890991, -27.175903, -59.570312
1491873086.275582, 1491873086.277880, -0.199585, +0.929260, -0.460693, -4.226685, -33.386230, -59.570312
1491873086.278143, 1491873086.280591, -0.199585, +0.929260, -0.387451, -4.226685, -33.386230, -59.173584
1491873086.280857, 1491873086.283155, -0.238953, +0.897217, -0.387451, -3.753662, -39.749146, -59.173584
1491873086.283419, 1491873086.285716, -0.238953, +0.897217, -0.387451, -3.753662, -39.749146, -58.868408
1491873086.285979, 1491873086.288277, -0.238953, +0.897217, -0.387451, -3.311157, -44.021606, -58.868408
1491873086.288540, 1491873086.290989, -0.238953, +0.994812, -0.239685, -3.311157, -44.021606, -58.837891
1491873086.291253, 1491873086.293550, -0.153809, +0.994812, -0.239685, -3.829956, -45.745850, -58.837891
1491873086.293812, 1491873086.296140, -0.153809, +0.994812, -0.239685, -3.829956, -45.745850, -58.837891
1491873086.296405, 1491873086.298704, -0.153809, +0.994812, -0.239685, -4.165649, -44.738770, -60.394287
1491873086.298967, 1491873086.301339, -0.106934, +1.057434, -0.168640, -4.165649, -44.738770, -64.300537
1491873086.301610, 1491873086.304024, -0.106567, +1.057434, -0.168640, -4.440308, -42.587280, -62.713623
1491873086.304295, 1491873086.306698, -0.106567, +1.057434, -0.168640, -4.440308, -42.587280, -62.713623
1491873086.306971, 1491873086.309384, -0.106567, +1.057434, -0.168640, -4.837036, -39.962769, -65.994263
1491873086.309657, 1491873086.312185, -0.011536, +1.101746, -0.143738, -4.837036, -39.962769, -69.580078
1491873086.312449, 1491873086.314751, -0.011536, +1.101746, -0.143738, -5.233765, -36.804199, -69.580078
1491873086.315144, 1491873086.317451, -0.011536, +1.101746, -0.143738, -5.233765, -36.804199, -72.967529
1491873086.317715, 1491873086.320016, -0.011536, +1.101746, -0.143738, -6.118774, -32.745361, -72.967529
1491873086.320488, 1491873086.322877, +0.037903, +1.118591, -0.199951, -6.118774, -24.932861, -76.477051
1491873086.323147, 1491873086.325537, +0.037903, +1.118591, -0.199951, -7.431030, -26.672363, -76.477051
1491873086.325844, 1491873086.328246, +0.037903, +1.118591, -0.199951, -7.431030, -22.766113, -80.184937
1491873086.328516, 1491873086.331245, +0.037903, +1.118591, -0.246826, -9.750366, -21.850586, -80.184937
1491873086.331516, 1491873086.333902, -0.051453, +1.095154, -0.260376, -10.986328, -20.248413, -82.565308
1491873086.334175, 1491873086.336549, -0.051453, +1.095154, -0.260376, -10.986328, -20.248413, -82.565308
1491873086.336820, 1491873086.339203, -0.051453, +1.095154, -0.260376, -11.550903, -20.965576, -85.220337
1491873086.339475, 1491873086.341851, -0.145203, +1.089478, -0.268433, -11.550903, -20.965576, -85.220337
1491873086.342118, 1491873086.344420, -0.162415, +1.089478, -0.268433, -12.496948, -21.530151, -87.219238
1491873086.344687, 1491873086.346978, -0.162415, +1.089478, -0.268433, -12.496948, -21.530151, -87.219238
1491873086.347243, 1491873086.349533, -0.162415, +1.089478, -0.268433, -12.496948, -22.476196, -89.828491
1491873086.349798, 1491873086.352224, -0.253418, +1.110535, -0.251770, -14.236450, -22.476196, -89.828491
1491873086.352497, 1491873086.354917, -0.253418, +1.110535, -0.251770, -16.998291, -23.422241, -91.003418
1491873086.355191, 1491873086.357616, -0.253418, +1.110535, -0.251770, -16.998291, -23.422241, -91.003418
1491873086.357889, 1491873086.360320, -0.253418, +1.110535, -0.251770, -20.172119, -27.008057, -90.621948
1491873086.360587, 1491873086.362884, -0.345337, +1.150818, -0.223389, -20.172119, -27.008057, -90.621948
1491873086.363150, 1491873086.365453, -0.345337, +1.150818, -0.223389, -22.613525, -32.943726, -90.606689
1491873086.365720, 1491873086.368014, -0.345337, +1.150818, -0.223389, -22.613525, -32.943726, -90.606689
1491873086.368281, 1491873086.370582, -0.345337, +1.150818, -0.223389, -26.519775, -37.582397, -91.201782
1491873086.370848, 1491873086.373151, -0.266785, +1.148987, -0.220642, -23.910522, -37.582397, -91.201782
1491873086.373417, 1491873086.375716, -0.266785, +1.148987, -0.220642, -23.910522, -42.114258, -91.857910
1491873086.375983, 1491873086.378277, -0.266785, +1.148987, -0.220642, -24.063110, -42.114258, -91.857910
1491873086.378544, 1491873086.381008, -0.266785, +1.148987, -0.220642, -24.063110, -46.249390, -92.330933
1491873086.381276, 1491873086.383577, -0.278503, +1.208130, -0.174683, -24.673462, -46.249390, -92.330933
1491873086.383843, 1491873086.386143, -0.278503, +1.208130, -0.174683, -24.673462, -51.422119, -93.475342
1491873086.386409, 1491873086.388705, -0.278503, +1.208130, -0.174683, -26.016235, -51.422119, -93.475342
1491873086.388971, 1491873086.391383, -0.278503, +1.208130, -0.174683, -26.016235, -57.281494, -95.031738
1491873086.391651, 1491873086.393954, -0.284363, +1.337585, -0.088257, -27.679443, -57.281494, -95.031738
1491873086.394220, 1491873086.396510, -0.284363, +1.337585, -0.088257, -27.679443, -61.187744, -97.564697
1491873086.396776, 1491873086.399074, -0.284363, +1.337585, -0.088257, -28.289795, -61.325073, -97.564697
1491873086.399340, 1491873086.401762, -0.284363, +1.337585, -0.088257, -28.289795, -65.231323, -101.318359
1491873086.402038, 1491873086.404462, -0.069580, +1.400208, -0.074707, -28.366089, -63.262939, -101.318359
1491873086.404735, 1491873086.407162, -0.069580, +1.400208, -0.074707, -28.366089, -63.262939, -106.491089
1491873086.407435, 1491873086.409855, -0.069580, +1.400208, -0.074707, -29.617310, -62.667847, -106.491089
1491873086.410141, 1491873086.412568, -0.069580, +1.493958, -0.069580, -29.617310, -61.126709, -111.557007
1491873086.412843, 1491873086.415270, -0.019958, +1.474915, -0.069580, -31.173706, -61.126709, -111.557007
1491873086.415545, 1491873086.417969, -0.019958, +1.474915, -0.069580, -35.079956, -60.150146, -116.973877
1491873086.418356, 1491873086.420795, -0.019958, +1.474915, -0.069580, -33.386230, -60.150146, -116.973877
1491873086.421068, 1491873086.425236, -0.036987, +1.568115, -0.101257, -35.430908, -58.685303, -121.673584
1491873086.425528, 1491873086.427843, -0.036987, +1.568115, -0.101257, -35.430908, -58.685303, -125.534058
1491873086.428116, 1491873086.430562, -0.036987, +1.568115, -0.101257, -37.139893, -57.312012, -125.534058
1491873086.430833, 1491873086.433128, +0.009888, +1.675415, -0.205444, -37.139893, -57.312012, -129.135132
1491873086.433396, 1491873086.435686, +0.013000, +1.675415, -0.205444, -40.145874, -56.488037, -129.135132
1491873086.435953, 1491873086.438251, +0.013000, +1.675415, -0.205444, -40.145874, -56.488037, -132.507324
1491873086.438518, 1491873086.440880, +0.013000, +1.675415, -0.205444, -43.960571, -56.076050, -132.507324
1491873086.441149, 1491873086.443442, +0.059326, +1.747192, -0.239319, -43.960571, -56.076050, -136.413574
1491873086.443709, 1491873086.446062, +0.059326, +1.747192, -0.239319, -46.768188, -58.044434, -135.818481
